timestamp,latitude,longitude,accelerometer_x,accelerometer_y,accelerometer_z,gyroscope_x,gyroscope_y,gyroscope_z,moving_speed,moving_speed_accuracy,session_id,is_exported
1659095876188,6.672684,-1.5672777,0.0,0.27046632766723633,0.3574986457824707,0.0,-0.34025195240974426,-0.375071257352829,0.0,0.0,real1,0
1659095876388,6.672684,-1.5672777,0.2732936143875122,0.9569401741027832,1.536454200744629,0.0,0.0,-0.3640756905078888,0.0,0.0,real1,0
1659095876590,6.672684,-1.5672777,0.0,0.36252593994140625,3.1370434761047363,0.0,0.21441370248794556,-0.45142942667007446,0.0,0.0,real1,0
1659095876789,6.672684,-1.5672777,0.0,0.0,-0.5287790298461914,0.0,-0.23884831368923187,-0.2816088795661926,0.0,0.0,real1,0
1659095876992,6.672684,-1.5672777,-0.9767381548881531,0.0,0.4541645050048828,-0.23396138846874237,0.0,-0.2370157092809677,0.0,0.0,real1,0
1659095877189,6.672684,-1.5672777,0.0,-0.46338891983032227,-0.7756385803222656,0.0,-0.25106561183929443,-0.24556782841682434,0.0,0.0,real1,0
1659095877389,6.672684,-1.5672777,-0.33478885889053345,0.0,0.7695150375366211,0.0,0.0,0.0,0.0,0.0,real1,0
1659095877589,6.672684,-1.5672777,-0.33699268102645874,-0.2783222198486328,0.0,0.0,0.0,0.0,0.0,0.0,real1,0
1659095877795,6.672684,-1.5672777,0.0,0.6409182548522949,1.5682735443115234,0.0,0.0,0.0,0.0,0.0,real1,0
1659095877989,6.672684,-1.5672777,0.0,-0.36530303955078125,-1.392263412475586,0.0,0.0,0.0,0.0,0.0,real1,0
1659095878190,6.672684,-1.5672777,-0.6948270201683044,-0.9597554206848145,-1.7684612274169922,0.0,0.0,0.0,0.0,0.0,real1,0
1659095878389,6.672684,-1.5672777,-0.8606950044631958,0.4160499572753906,0.2659339904785156,0.0,0.0,0.0,0.0,0.0,real1,0
1659095878591,6.672684,-1.5672777,-0.24729982018470764,0.3123359680175781,0.21262073516845703,0.0,0.0,0.0,0.0,0.0,real1,0
1659095878789,6.672684,-1.5672777,-0.2500847578048706,-0.3787117004394531,-0.6264190673828125,0.0,0.0,0.0,0.0,0.0,real1,0
1659095878990,6.672684,-1.5672777,0.0,0.2974839210510254,0.5189151763916016,0.0,0.0,0.0,0.0,0.0,real1,0
1659095879190,6.672684,-1.5672777,0.0,0.40424585342407227,0.4985189437866211,0.0,0.0,0.0,0.0,0.0,real1,0
1659095879389,6.672684,-1.5672777,0.255378782749176,0.7845211029052734,1.756648063659668,0.0,0.0,0.0,0.0,0.0,real1,0
1659095879590,6.672684,-1.5672777,0.0,0.44521617889404297,0.5516376495361328,0.0,0.0,0.0,0.0,0.0,real1,0
1659095879789,6.672684,-1.5672777,0.2315737009048462,0.5880560874938965,0.4317445755004883,0.0,0.0,0.0,0.0,0.0,real1,0
1659095879989,6.672662,-1.5672743,0.4551911950111389,-0.38397979736328125,-0.499265193939209,0.23579397797584534,0.0,0.0,0.27683666348457336,0.0,real1,0
1659095880189,6.672662,-1.5672743,0.48513665795326233,-0.37537431716918945,-0.22083806991577148,0.0,0.0,0.0,0.27683666348457336,0.0,real1,0
1659095880389,6.672662,-1.5672743,0.0,0.0,0.0,0.0,0.0,0.0,0.27683666348457336,0.0,real1,0
1659095880589,6.672662,-1.5672743,-0.28538304567337036,-0.24923419952392578,-0.9609284400939941,0.0,0.0,0.0,0.27683666348457336,0.0,real1,0
1659095880790,6.672662,-1.5672743,0.0,-0.6846160888671875,-1.4730286598205566,0.0,0.0,0.0,0.27683666348457336,0.0,real1,0
1659095880989,6.672662,-1.5672743,0.0,0.32421112060546875,0.7833480834960938,0.0,0.0,0.0,0.27683666348457336,0.0,real1,0
1659095881189,6.672662,-1.5672743,0.0,0.0,0.0,0.0,0.0,0.0,0.27683666348457336,0.0,real1,0
1659095881389,6.672662,-1.5672743,0.0,-0.48601436614990234,-0.5470070838928223,0.0,0.0,0.0,0.27683666348457336,0.0,real1,0
1659095881589,6.672662,-1.5672743,0.2359127402305603,0.41845703125,1.2030754089355469,0.0,0.0,0.0,0.27683666348457336,0.0,real1,0
1659095881790,6.672662,-1.5672743,-0.23478257656097412,0.0,1.2567481994628906,0.0,0.0,0.0,0.27683666348457336,0.0,real1,0
1659095881989,6.672662,-1.5672743,0.0,0.0,0.0,-0.2028072625398636,0.0,0.0,0.27683666348457336,0.0,real1,0
1659095882189,6.672662,-1.5672743,0.0,0.3672976493835449,0.7889614105224609,0.0,0.0,0.0,0.27683666348457336,0.0,real1,0
1659095882389,6.672662,-1.5672743,0.0,0.0,0.0,0.0,0.0,0.0,0.27683666348457336,0.0,real1,0
1659095882589,6.672662,-1.5672743,-0.2364572286605835,0.0,0.0,0.0,0.0,0.0,0.27683666348457336,0.0,real1,0
1659095882791,6.672662,-1.5672743,0.27494391798973083,-0.4963536262512207,-1.8952107429504395,0.0,0.0,0.0,0.27683666348457336,0.0,real1,0
1659095882990,6.672662,-1.5672743,-0.2929476499557495,0.0,0.32686614990234375,0.0,0.0,0.0,0.27683666348457336,0.0,real1,0
1659095883191,6.672662,-1.5672743,-0.35068920254707336,-0.5209550857543945,-1.0643515586853027,0.0,0.0,0.0,0.27683666348457336,0.0,real1,0
1659095883388,6.672662,-1.5672743,-0.2779179811477661,0.0,0.5495481491088867,0.0,0.0,0.0,0.27683666348457336,0.0,real1,0
1659095883588,6.672662,-1.5672743,0.29028087854385376,0.0,0.4344940185546875,0.0,0.0,0.0,0.27683666348457336,0.0,real1,0
1659095883828,6.672662,-1.5672743,0.0,-0.25844621658325195,-0.30149364471435547,0.0,0.0,0.0,0.27683666348457336,0.0,real1,0
1659095883991,6.6729585,-1.5674281,0.0,-0.25178003311157227,0.0,0.0,0.0,0.0,5.115870952606201,0.0,real1,0
1659095884190,6.6729585,-1.5674281,-0.3128718137741089,-0.32909631729125977,-0.7999248504638672,0.0,0.0,0.0,5.115870952606201,0.0,real1,0
1659095884390,6.6729585,-1.5674281,0.0,0.0,-0.9670438766479492,0.0,0.0,0.0,5.115870952606201,0.0,real1,0
1659095884588,6.6729585,-1.5674281,0.0,0.2009263038635254,0.3133392333984375,0.0,0.0,0.0,5.115870952606201,0.0,real1,0
1659095884790,6.6729585,-1.5674281,0.0,0.0,0.3704872131347656,0.0,0.0,0.0,5.115870952606201,0.0,real1,0
1659095884988,6.6729585,-1.5674281,0.0,0.0,0.37471771240234375,0.0,0.0,0.0,5.115870952606201,0.0,real1,0
1659095885189,6.6729585,-1.5674281,-0.4669530391693115,0.5685825347900391,0.3655233383178711,0.0,0.0,0.0,5.115870952606201,0.0,real1,0
1659095885388,6.6730298,-1.5674441,0.0,0.0,-0.6629786491394043,0.0,0.0,0.0,5.980303764343262,0.0,real1,0
1659095885588,6.6730298,-1.5674441,-0.3562895655632019,0.7898378372192383,2.1156272888183594,0.0,0.0,0.0,5.980303764343262,0.0,real1,0
1659095885788,6.6730298,-1.5674441,0.0,0.0,0.4163646697998047,0.0,0.0,0.0,5.980303764343262,0.0,real1,0
1659095885988,6.6730298,-1.5674441,0.0,0.2756156921386719,0.3448371887207031,0.0,0.0,0.0,5.980303764343262,0.0,real1,0
1659095886188,6.6730298,-1.5674441,0.0,0.5203428268432617,0.6064214706420898,0.0,0.0,0.0,5.980303764343262,0.0,real1,0
1659095886388,6.6731331,-1.56745,0.20085018873214722,0.0,0.0,0.0,0.0,0.0,6.340661525726318,0.0,real1,0
1659095886588,6.6731331,-1.56745,0.0,-0.37359142303466797,-0.4880499839782715,0.0,0.0,0.0,6.340661525726318,0.0,real1,0
1659095886795,6.6731331,-1.56745,0.0,0.0,0.9347381591796875,0.20097467303276062,0.0,0.0,6.340661525726318,0.0,real1,0
1659095886990,6.6732347,-1.5674935,0.0,0.0,0.2880735397338867,0.0,0.0,0.0,6.213054180145264,0.0,real1,0
1659095887188,6.6732347,-1.5674935,0.0,0.0,-0.6317124366760254,0.0,0.0,0.0,6.213054180145264,0.0,real1,0
1659095887388,6.6732347,-1.5674935,0.0,0.0,0.0,0.0,0.0,0.0,6.213054180145264,0.0,real1,0
1659095887589,6.6732347,-1.5674935,0.27708661556243896,-0.4129810333251953,-1.207801342010498,0.0,0.0,0.0,6.213054180145264,0.0,real1,0
1659095887788,6.6732347,-1.5674935,0.0,0.2335200309753418,0.8896121978759766,0.0,0.0,0.0,6.213054180145264,0.0,real1,0
1659095887989,6.6732347,-1.5674935,0.32885876297950745,0.6773242950439453,0.2991828918457031,0.0,0.0,0.0,6.213054180145264,0.0,real1,0
1659095888188,6.6732347,-1.5674935,0.0,0.554865837097168,1.0063581466674805,0.0,0.0,0.0,6.213054180145264,0.0,real1,0
1659095888389,6.6732347,-1.5674935,0.0,0.23850488662719727,0.44400501251220703,0.0,0.0,0.0,6.213054180145264,0.0,real1,0
1659095888589,6.6732347,-1.5674935,0.0,-0.4360065460205078,-0.8139543533325195,-0.23518311977386475,0.0,0.0,6.213054180145264,0.0,real1,0
1659095888789,6.6732347,-1.5674935,0.6357567310333252,-0.3571758270263672,-0.6344804763793945,0.0,0.0,0.0,6.213054180145264,0.0,real1,0
1659095888989,6.6732347,-1.5674935,0.6721921563148499,-0.467010498046875,0.5379724502563477,0.2028072625398636,0.0,0.0,6.213054180145264,0.0,real1,0
1659095889189,6.6732347,-1.5674935,0.21287192404270172,0.0,0.22954177856445312,0.0,0.0,0.0,6.213054180145264,0.0,real1,0
1659095889388,6.6732347,-1.5674935,0.0,0.858583927154541,1.9863815307617188,0.0,0.0,0.0,6.213054180145264,0.0,real1,0
1659095889589,6.6732347,-1.5674935,-0.3245052397251129,-0.36405038833618164,-1.5162138938903809,0.0,0.0,0.0,6.213054180145264,0.0,real1,0
1659095889791,6.6732347,-1.5674935,0.38787922263145447,0.5267162322998047,1.2203264236450195,0.0,0.0,0.0,6.213054180145264,0.0,real1,0
1659095889989,6.6732347,-1.5674935,0.0,0.5911884307861328,1.6668071746826172,0.0,0.0,0.0,6.213054180145264,0.0,real1,0
1659095890189,6.6732347,-1.5674935,0.0,0.3451361656188965,0.5686473846435547,0.0,0.0,0.0,6.213054180145264,0.0,real1,0
1659095890389,6.6732347,-1.5674935,0.0,-0.26691246032714844,-0.6894712448120117,0.2687807083129883,0.0,0.0,6.213054180145264,0.0,real1,0
1659095890588,6.6732347,-1.5674935,0.3549734354019165,0.0,0.0,0.0,0.0,0.0,6.213054180145264,0.0,real1,0
1659095890788,6.6734419,-1.5675491,0.0,-1.120004653930664,-2.1624927520751953,0.0,0.0,0.0,6.1732940673828125,0.0,real1,0
1659095890989,6.6734419,-1.5675491,0.0,0.0,0.22024822235107422,0.0,0.0,0.0,6.1732940673828125,0.0,real1,0
1659095891188,6.6734419,-1.5675491,0.0,0.0,0.0,0.0,0.0,0.0,6.1732940673828125,0.0,real1,0
1659095891388,6.6734419,-1.5675491,0.0,0.0,0.0,0.0,0.0,0.0,6.1732940673828125,0.0,real1,0
1659095891588,6.6734419,-1.5675491,0.0,0.349637508392334,0.507328987121582,0.0,0.0,0.0,6.1732940673828125,0.0,real1,0
1659095891789,6.6735224,-1.5674724,-0.6216769218444824,0.638242244720459,0.531494140625,0.0,0.0,0.0,6.871889114379883,0.0,real1,0
1659095891988,6.6735224,-1.5674724,-0.674934446811676,0.31656503677368164,0.4248189926147461,0.0,0.0,0.0,6.871889114379883,0.0,real1,0
1659095892188,6.6735224,-1.5674724,0.0,0.20683574676513672,0.4537029266357422,0.0,0.0,0.0,6.871889114379883,0.0,real1,0
1659095892389,6.6735224,-1.5674724,-0.25954511761665344,0.3313765525817871,0.21732711791992188,0.0,0.0,0.0,6.871889114379883,0.0,real1,0
1659095892588,6.6735224,-1.5674724,-0.5421138405799866,0.0,-0.8973517417907715,0.0,0.0,0.0,6.871889114379883,0.0,real1,0
1659095892788,6.6735224,-1.5674724,-0.29551583528518677,0.0,-1.5080552101135254,0.0,0.0,0.0,6.871889114379883,0.0,real1,0
1659095892988,6.6735224,-1.5674724,0.0,0.0,0.0,0.0,0.0,0.0,6.871889114379883,0.0,real1,0
1659095893189,6.6735224,-1.5674724,0.0,0.27188873291015625,0.6163339614868164,0.0,0.0,0.0,6.871889114379883,0.0,real1,0
1659095893388,6.6734629,-1.5674801,0.28230011463165283,0.0,0.0,0.0,0.0,0.0,2.9592154026031494,0.0,real1,0
1659095893589,6.6734629,-1.5674801,0.0,0.0,0.2667398452758789,0.0,0.0,0.0,2.9592154026031494,0.0,real1,0
1659095893789,6.6734629,-1.5674801,0.0,0.0,0.0,0.0,0.0,0.0,2.9592154026031494,0.0,real1,0
1659095893988,6.6734629,-1.5674801,0.0,0.0,0.0,0.0,0.0,0.0,2.9592154026031494,0.0,real1,0
1659095894188,6.6734629,-1.5674801,0.0,0.0,0.0,0.0,0.0,0.0,2.9592154026031494,0.0,real1,0
1659095894388,6.6737322,-1.5673931,0.0,0.0,0.24075698852539062,0.0,0.0,0.0,8.581012725830078,0.0,real1,0
1659095894589,6.6737322,-1.5673931,0.0,0.0,0.36450672149658203,0.0,0.0,0.0,8.581012725830078,0.0,real1,0
1659095894788,6.6737322,-1.5673931,0.41563671827316284,0.0,0.760894775390625,0.0,0.0,0.0,8.581012725830078,0.0,real1,0
1659095894988,6.6737322,-1.5673931,0.0,0.0,-0.48952484130859375,0.0,0.0,0.0,8.581012725830078,0.0,real1,0
1659095895189,6.6737322,-1.5673931,0.0,0.0,-0.7067480087280273,0.0,0.0,0.0,8.581012725830078,0.0,real1,0
1659095895388,6.6737322,-1.5673931,0.0,0.0,-0.3746833801269531,0.0,0.0,0.0,8.581012725830078,0.0,real1,0
1659095895589,6.6737322,-1.5673931,0.0,0.23810052871704102,0.0,0.0,0.0,0.0,8.581012725830078,0.0,real1,0
1659095895788,6.6737322,-1.5673931,0.3008376359939575,-0.23871374130249023,-1.1332387924194336,0.0,0.0,0.0,8.581012725830078,0.0,real1,0
1659095895988,6.6737322,-1.5673931,0.0,0.0,-0.3414754867553711,-0.2076941877603531,0.0,0.0,8.581012725830078,0.0,real1,0
1659095896188,6.6737322,-1.5673931,0.0,0.4036412239074707,0.39800071716308594,0.0,0.0,0.0,8.581012725830078,0.0,real1,0
1659095896388,6.6737322,-1.5673931,0.0,-0.22685909271240234,-0.48970556259155273,-0.21380282938480377,0.0,0.0,8.581012725830078,0.0,real1,0
1659095896590,6.6737322,-1.5673931,-0.6400295495986938,-1.13008451461792,-2.1927542686462402,-0.3634648323059082,0.0,0.0,8.581012725830078,0.0,real1,0
1659095896788,6.6737322,-1.5673931,-0.7061467170715332,0.0,0.0,0.0,0.0,0.0,8.581012725830078,0.0,real1,0
1659095896988,6.6737322,-1.5673931,-0.29533159732818604,0.24128246307373047,0.6770153045654297,0.0,0.0,0.0,8.581012725830078,0.0,real1,0
1659095897188,6.6737322,-1.5673931,0.0,0.2765798568725586,1.4666175842285156,0.0,0.0,0.0,8.581012725830078,0.0,real1,0
1659095897389,6.6737322,-1.5673931,-0.30602410435676575,-0.25551319122314453,0.26216888427734375,0.0,0.0,0.0,8.581012725830078,0.0,real1,0
1659095897588,6.6737322,-1.5673931,0.0,0.2889699935913086,0.9717884063720703,0.0,0.0,0.0,8.581012725830078,0.0,real1,0
1659095897789,6.6737322,-1.5673931,0.0,0.0,1.2616424560546875,0.0,0.0,0.0,8.581012725830078,0.0,real1,0
1659095897989,6.6737322,-1.5673931,-0.2762449085712433,0.0,0.23107242584228516,0.0,0.0,0.0,8.581012725830078,0.0,real1,0
1659095898188,6.6737322,-1.5673931,0.0,0.0,-0.5382823944091797,0.0,0.0,0.0,8.581012725830078,0.0,real1,0
1659095898389,6.6740996,-1.5672321,0.0,0.0,0.4301128387451172,0.0,0.0,0.0,10.334650993347168,0.0,real1,0
1659095898588,6.6740741,-1.567251,0.24526524543762207,-0.5289978981018066,-1.504837989807129,0.0,0.0,0.0,7.937536239624023,0.0,real1,0
1659095898789,6.6740741,-1.567251,0.0,-0.3321080207824707,-0.6485047340393066,0.0,0.0,0.0,7.937536239624023,0.0,real1,0
1659095898989,6.6740741,-1.567251,-0.2852901220321655,0.0,0.0,0.0,0.0,0.0,7.937536239624023,0.0,real1,0
1659095899188,6.6740741,-1.567251,0.0,0.0,0.6993951797485352,0.0,0.0,0.0,7.937536239624023,0.0,real1,0
1659095899388,6.6740741,-1.567251,0.0,0.0,0.0,0.0,0.0,0.0,7.937536239624023,0.0,real1,0
1659095899588,6.6740869,-1.5673336,0.0,0.0,0.0,0.0,0.0,0.0,7.427519798278809,0.0,real1,0
1659095899789,6.6740869,-1.5673336,0.23999109864234924,0.0,0.20008182525634766,0.0,0.0,0.0,7.427519798278809,0.0,real1,0
1659095899989,6.6740869,-1.5673336,0.0,0.0,0.7180166244506836,0.0,0.0,0.0,7.427519798278809,0.0,real1,0
1659095900189,6.6740869,-1.5673336,0.0,0.0,0.0,0.0,0.0,0.0,7.427519798278809,0.0,real1,0
1659095900388,6.6741123,-1.5674129,0.0,-0.31843137741088867,-0.6856107711791992,0.0,0.0,0.0,6.856314659118652,0.0,real1,0
1659095900589,6.6741123,-1.5674129,-0.4922839105129242,0.2142486572265625,0.4335823059082031,0.0,0.0,0.0,6.856314659118652,0.0,real1,0
1659095900788,6.6741123,-1.5674129,0.25813305377960205,0.3510150909423828,0.0,0.22540926933288574,0.0,0.0,6.856314659118652,0.0,real1,0
1659095900988,6.6741123,-1.5674129,0.0,0.0,0.6248550415039062,0.0,0.0,0.0,6.856314659118652,0.0,real1,0
1659095901188,6.6741274,-1.5675656,0.0,0.0,0.0,0.0,0.0,0.0,6.658300399780273,0.0,real1,0
1659095901389,6.6741274,-1.5675656,-0.503513753414154,0.7688932418823242,0.5122919082641602,0.0,0.0,0.0,6.658300399780273,0.0,real1,0
1659095901588,6.6741274,-1.5675656,0.0,0.7963294982910156,0.32209300994873047,0.0,0.0,0.0,6.658300399780273,0.0,real1,0
1659095901789,6.6741274,-1.5675656,-0.46971920132637024,0.0,0.0,0.0,0.0,0.0,6.658300399780273,0.0,real1,0
1659095901989,6.6741418,-1.5676691,-0.3437316417694092,0.4086580276489258,0.0,0.0,0.0,0.0,6.865785598754883,0.0,real1,0
1659095902188,6.6741418,-1.5676691,0.0,-0.48302507400512695,-0.7313475608825684,0.0,0.0,0.0,6.865785598754883,0.0,real1,0
1659095902388,6.6741418,-1.5676691,0.0,0.0,-0.40077733993530273,0.0,0.0,0.0,6.865785598754883,0.0,real1,0
1659095902588,6.6741418,-1.5676691,-0.5352195501327515,-0.3541111946105957,-1.0468482971191406,0.0,0.0,0.0,6.865785598754883,0.0,real1,0
1659095902789,6.6741418,-1.5676691,0.0,-0.5752444267272949,0.0,0.0,0.0,0.0,6.865785598754883,0.0,real1,0
1659095902988,6.6741418,-1.5676691,0.5552201271057129,0.0,0.39609622955322266,0.0,0.0,0.0,6.865785598754883,0.0,real1,0
1659095903188,6.6741418,-1.5676691,0.0,-0.5014185905456543,-0.6375269889831543,0.0,0.0,0.0,6.865785598754883,0.0,real1,0
1659095903388,6.6741418,-1.5676691,0.22146277129650116,0.28693723678588867,0.6207723617553711,0.0,0.0,0.0,6.865785598754883,0.0,real1,0
1659095903589,6.6741418,-1.5676691,-0.2943757474422455,0.22233009338378906,0.2404642105102539,0.0,0.0,0.0,6.865785598754883,0.0,real1,0
1659095903788,6.6741418,-1.5676691,0.0,0.5298237800598145,1.7521657943725586,0.0,0.0,0.0,6.865785598754883,0.0,real1,0
1659095903988,6.6741418,-1.5676691,0.0,0.30756473541259766,0.3526754379272461,0.0,0.0,0.0,6.865785598754883,0.0,real1,0
1659095904188,6.6741418,-1.5676691,-0.6098163723945618,-0.2401890754699707,-0.7091164588928223,0.0,0.0,0.0,6.865785598754883,0.0,real1,0
1659095904389,6.6741418,-1.5676691,0.39069855213165283,0.46300554275512695,0.6930379867553711,0.0,0.0,0.0,6.865785598754883,0.0,real1,0
1659095904588,6.6741418,-1.5676691,-0.24486044049263,0.21117496490478516,0.4355478286743164,0.0,0.0,0.0,6.865785598754883,0.0,real1,0
1659095904789,6.6741418,-1.5676691,0.29138195514678955,0.4032444953918457,0.8548488616943359,0.0,0.0,0.0,6.865785598754883,0.0,real1,0
1659095904989,6.6741418,-1.5676691,0.0,0.25205087661743164,0.0,0.0,0.0,0.0,6.865785598754883,0.0,real1,0
1659095905189,6.6741418,-1.5676691,0.0,-0.318148136138916,-0.38858699798583984,0.0,0.0,0.0,6.865785598754883,0.0,real1,0
1659095905389,6.6741418,-1.5676691,0.0,-0.44701480865478516,-0.38206052780151367,0.0,0.0,0.0,6.865785598754883,0.0,real1,0
1659095905588,6.6741418,-1.5676691,0.0,0.0,-0.49462270736694336,0.0,0.0,0.0,6.865785598754883,0.0,real1,0
1659095905788,6.6741418,-1.5676691,0.2056533545255661,0.0,0.6549949645996094,0.0,0.0,0.0,6.865785598754883,0.0,real1,0
1659095905989,6.6742506,-1.5674681,0.0,0.0,0.0,0.0,0.0,0.0,4.409759998321533,0.0,real1,0
1659095906188,6.6742506,-1.5674681,0.0,0.33957862854003906,1.4731483459472656,0.0,0.0,0.0,4.409759998321533,0.0,real1,0
1659095906388,6.6742506,-1.5674681,0.0,0.3146982192993164,0.2909841537475586,0.0,0.0,0.0,4.409759998321533,0.0,real1,0
1659095906588,6.6742506,-1.5674681,0.0,-0.7460904121398926,-0.6981158256530762,0.0,0.0,0.0,4.409759998321533,0.0,real1,0
1659095906788,6.6742506,-1.5674681,0.0,-0.2904634475708008,-0.69744873046875,0.0,0.0,0.0,4.409759998321533,0.0,real1,0
1659095906988,6.6742506,-1.5674681,0.0,0.4739251136779785,0.2304096221923828,0.0,0.0,0.0,4.409759998321533,0.0,real1,0
1659095907188,6.6742506,-1.5674681,0.5760383009910583,0.35782432556152344,0.6968450546264648,0.0,0.0,0.0,4.409759998321533,0.0,real1,0
1659095907388,6.6742506,-1.5674681,0.0,0.0,0.0,0.0,0.0,0.0,4.409759998321533,0.0,real1,0
1659095907594,6.6742506,-1.5674681,-0.2216651737689972,0.0,-0.7769107818603516,0.0,0.0,0.0,4.409759998321533,0.0,real1,0
1659095907788,6.6742506,-1.5674681,0.4501141607761383,0.0,0.0,0.0,0.0,0.0,4.409759998321533,0.0,real1,0
1659095907989,6.6742506,-1.5674681,0.0,0.0,-0.3478574752807617,0.0,0.0,0.0,4.409759998321533,0.0,real1,0
1659095908188,6.6742506,-1.5674681,0.3797147870063782,0.0,-1.173414707183838,-0.2028072625398636,0.0,0.0,4.409759998321533,0.0,real1,0
1659095908388,6.6742506,-1.5674681,0.0,0.0,0.31226634979248047,0.0,0.0,0.0,4.409759998321533,0.0,real1,0
1659095908589,6.6742506,-1.5674681,0.46481412649154663,0.2401132583618164,1.0947928428649902,0.0,0.0,0.0,4.409759998321533,0.0,real1,0
1659095908789,6.6742506,-1.5674681,-0.21666648983955383,-0.22512054443359375,-0.2557644844055176,0.0,0.0,0.0,4.409759998321533,0.0,real1,0
1659095908988,6.6742506,-1.5674681,0.22024376690387726,0.0,0.0,0.0,0.0,0.0,4.409759998321533,0.0,real1,0
1659095909189,6.6742506,-1.5674681,0.20247983932495117,-0.72637939453125,-0.3939824104309082,0.0,0.0,0.0,4.409759998321533,0.0,real1,0
1659095909389,6.6742506,-1.5674681,0.0,-0.5153436660766602,-0.3083338737487793,0.0,0.0,0.0,4.409759998321533,0.0,real1,0
1659095909589,6.6742506,-1.5674681,-0.2406216561794281,-0.8183660507202148,-0.7621722221374512,0.0,0.0,0.0,4.409759998321533,0.0,real1,0
1659095909788,6.6742506,-1.5674681,-0.3190962076187134,0.0,1.426417350769043,0.0,0.0,0.0,4.409759998321533,0.0,real1,0
1659095909988,6.6741789,-1.5672466,-0.6709290146827698,0.0,-0.5879015922546387,0.0,0.0,0.0,3.7436561584472656,0.0,real1,0
1659095910189,6.6741789,-1.5672466,-0.326515257358551,-0.47225189208984375,0.507502555847168,0.2730567753314972,0.0,0.0,3.7436561584472656,0.0,real1,0
1659095910388,6.6741789,-1.5672466,-0.3220757842063904,0.0,0.0,0.0,0.0,0.0,3.7436561584472656,0.0,real1,0
1659095910588,6.6741789,-1.5672466,0.0,0.37597036361694336,2.4625396728515625,0.0,0.0,0.0,3.7436561584472656,0.0,real1,0
1659095910788,6.6741789,-1.5672466,0.0,0.27911853790283203,1.3255290985107422,0.0,0.0,0.0,3.7436561584472656,0.0,real1,0
1659095910989,6.6741789,-1.5672466,0.21668344736099243,0.0,1.940603256225586,0.0,0.0,0.0,3.7436561584472656,0.0,real1,0
1659095911189,6.6741789,-1.5672466,0.0,0.43895435333251953,0.6323175430297852,0.0,0.0,0.0,3.7436561584472656,0.0,real1,0
1659095911388,6.6741789,-1.5672466,0.4439319372177124,-1.4648962020874023,-1.1287517547607422,0.3897320330142975,0.0,0.0,3.7436561584472656,0.0,real1,0
1659095911589,6.6741789,-1.5672466,-0.7692573070526123,-1.6038360595703125,-2.2749080657958984,0.0,0.0,0.0,3.7436561584472656,0.0,real1,0
1659095911788,6.6741789,-1.5672466,0.0,-0.5984163284301758,-0.8136148452758789,0.0,0.0,0.0,3.7436561584472656,0.0,real1,0
1659095911988,6.6741789,-1.5672466,0.0,-0.25519227981567383,0.49831485748291016,0.0,0.0,0.0,3.7436561584472656,0.0,real1,0
1659095912188,6.6741789,-1.5672466,0.0,0.4138834476470947,0.37648582458496094,0.2382374405860901,0.0,0.0,3.7436561584472656,0.0,real1,0
1659095912388,6.6741789,-1.5672466,0.39366239309310913,-0.7633819580078125,-1.395437240600586,0.21868975460529327,0.0,0.0,3.7436561584472656,0.0,real1,0
1659095912588,6.6741789,-1.5672466,0.0,1.4677824974060059,1.2488489151000977,0.5668829679489136,0.0,0.0,3.7436561584472656,0.0,real1,0
1659095912788,6.6741789,-1.5672466,0.8084614276885986,1.3718633651733398,0.3007059097290039,0.0,0.0,0.0,3.7436561584472656,0.0,real1,0
1659095912988,6.6741789,-1.5672466,0.33151233196258545,1.0510036945343018,0.0,0.0,0.0,0.29504790902137756,3.7436561584472656,0.0,real1,0
1659095913189,6.6741789,-1.5672466,0.0,-0.38895511627197266,0.2198190689086914,0.0,0.0,0.0,3.7436561584472656,0.0,real1,0
1659095913388,6.6741789,-1.5672466,0.4436302185058594,0.0,-0.45630455017089844,0.0,0.0,0.20341812074184418,3.7436561584472656,0.0,real1,0
1659095913589,6.6741789,-1.5672466,0.0,0.0,0.0,0.0,0.0,0.0,3.7436561584472656,0.0,real1,0
1659095913788,6.6742875,-1.5671162,0.0,0.0,0.6292476654052734,0.0,0.0,0.0,3.618429660797119,0.0,real1,0
1659095913989,6.6742875,-1.5671162,0.21948954463005066,0.32422685623168945,0.4990234375,0.0,0.0,0.0,3.618429660797119,0.0,real1,0
1659095914190,6.6742875,-1.5671162,0.0,0.0,0.0,0.0,0.0,0.0,3.618429660797119,0.0,real1,0
1659095914389,6.6742875,-1.5671162,0.5780261754989624,0.4752469062805176,0.0,0.0,0.0,0.0,3.618429660797119,0.0,real1,0
1659095914589,6.6742875,-1.5671162,-0.42904576659202576,-0.518916130065918,-0.6614995002746582,0.0,0.0,0.0,3.618429660797119,0.0,real1,0
1659095914789,6.6742875,-1.5671162,-0.2877572178840637,0.0,-1.2520685195922852,0.0,0.0,0.0,3.618429660797119,0.0,real1,0
1659095914988,6.6742875,-1.5671162,-0.2062741219997406,0.0,0.0,0.0,0.0,0.0,3.618429660797119,0.0,real1,0
1659095915188,6.6742875,-1.5671162,-0.21864363551139832,0.46621131896972656,0.5609664916992188,0.0,0.0,0.0,3.618429660797119,0.0,real1,0
1659095915388,6.6742875,-1.5671162,0.0,0.0,-0.20914649963378906,0.0,0.0,0.0,3.618429660797119,0.0,real1,0
1659095915589,6.6742875,-1.5671162,0.5683361887931824,-0.5287213325500488,-1.329134464263916,0.0,0.0,0.0,3.618429660797119,0.0,real1,0
1659095915788,6.6742875,-1.5671162,-0.37746116518974304,0.0,-0.377716064453125,0.0,0.0,0.0,3.618429660797119,0.0,real1,0
1659095915988,6.6742875,-1.5671162,0.38985127210617065,0.36881113052368164,1.131021499633789,0.0,0.0,0.0,3.618429660797119,0.0,real1,0
1659095916189,6.6742875,-1.5671162,-0.2920688986778259,0.0,1.3246784210205078,0.0,0.0,0.0,3.618429660797119,0.0,real1,0
1659095916388,6.6742875,-1.5671162,1.109592080116272,0.28189611434936523,1.017808437347412,0.21502456068992615,0.0,0.0,3.618429660797119,0.0,real1,0
1659095916588,6.6742875,-1.5671162,0.0,-0.8974723815917969,-1.0530524253845215,0.0,0.0,0.0,3.618429660797119,0.0,real1,0
1659095916788,6.6742875,-1.5671162,0.0,0.0,0.0,0.0,0.0,0.0,3.618429660797119,0.0,real1,0
1659095916988,6.6742875,-1.5671162,0.7907540798187256,0.2100663185119629,0.7236628532409668,0.0,0.0,0.0,3.618429660797119,0.0,real1,0
1659095917189,6.6742875,-1.5671162,0.0,-0.4741640090942383,-0.48199462890625,0.0,0.0,0.0,3.618429660797119,0.0,real1,0
1659095917389,6.6742875,-1.5671162,0.0,0.0,0.6498003005981445,0.0,0.0,0.0,3.618429660797119,0.0,real1,0
1659095917588,6.6742875,-1.5671162,0.0,0.2882695198059082,0.21402549743652344,0.35552358627319336,0.0,0.0,3.618429660797119,0.0,real1,0
1659095917789,6.6745944,-1.5670304,-0.3972366750240326,0.0,0.8385095596313477,0.0,0.0,0.0,5.302989959716797,0.0,real1,0
1659095917988,6.6745944,-1.5670304,0.0,-0.22076988220214844,-0.5116829872131348,0.0,0.0,0.0,5.302989959716797,0.0,real1,0
1659095918188,6.6745944,-1.5670304,0.0,-0.3681149482727051,0.6340169906616211,0.0,0.0,0.0,5.302989959716797,0.0,real1,0
1659095918388,6.6745944,-1.5670304,0.2780420184135437,0.645169734954834,1.3249483108520508,0.0,0.2779437005519867,0.0,5.302989959716797,0.0,real1,0
1659095918591,6.6745944,-1.5670304,-0.31007659435272217,0.0,-0.2923393249511719,0.0,0.0,0.0,5.302989959716797,0.0,real1,0
1659095918790,6.6745944,-1.5670304,0.0,-0.304776668548584,-0.6101064682006836,0.0,-0.25045475363731384,0.0,5.302989959716797,0.0,real1,0
1659095918989,6.6745944,-1.5670304,0.34540510177612305,0.3753628730773926,0.0,0.0,0.0,0.0,5.302989959716797,0.0,real1,0
1659095919192,6.6745944,-1.5670304,0.3821145296096802,0.7824883460998535,1.0035419464111328,0.0,0.0,0.0,5.302989959716797,0.0,real1,0
1659095919420,6.6745944,-1.5670304,-0.28352147340774536,0.8795175552368164,1.7841572761535645,-0.22418753802776337,0.0,0.0,5.302989959716797,0.0,real1,0
1659095919588,6.6745944,-1.5670304,0.2685471773147583,-0.4219679832458496,0.0,0.0,0.0,0.0,5.302989959716797,0.0,real1,0
1659095919788,6.6745944,-1.5670304,-1.1865283250808716,0.7054057121276855,0.8793454170227051,0.0,0.0,0.0,5.302989959716797,0.0,real1,0
1659095919989,6.6745944,-1.5670304,-0.4184422791004181,0.0,1.0188612937927246,0.0,0.0,0.0,5.302989959716797,0.0,real1,0
1659095920189,6.6745944,-1.5670304,0.0,-0.23030757904052734,-0.5933070182800293,0.0,0.0,0.0,5.302989959716797,0.0,real1,0
1659095920388,6.6745944,-1.5670304,0.0,0.0,0.0,0.0,0.0,0.0,5.302989959716797,0.0,real1,0
1659095920592,6.6745944,-1.5670304,0.0,0.0,-0.2661399841308594,0.0,0.0,0.0,5.302989959716797,0.0,real1,0
1659095920790,6.6745944,-1.5670304,0.0,0.0,0.0,0.0,0.0,0.0,5.302989959716797,0.0,real1,0
1659095920988,6.6745944,-1.5670304,0.0,0.0,0.0,0.0,0.0,0.0,5.302989959716797,0.0,real1,0
1659095921189,6.6745944,-1.5670304,0.0,-0.29291534423828125,0.0,0.0,0.0,0.0,5.302989959716797,0.0,real1,0
1659095921388,6.6745944,-1.5670304,0.0,0.0,-0.22350072860717773,0.0,0.0,0.0,5.302989959716797,0.0,real1,0
1659095921591,6.6745944,-1.5670304,0.0,0.0,0.0,0.0,0.0,0.0,5.302989959716797,0.0,real1,0
1659095921788,6.6745944,-1.5670304,0.0,0.314422607421875,0.31983327865600586,0.0,0.0,0.0,5.302989959716797,0.0,real1,0
1659095921988,6.6745944,-1.5670304,0.0,0.0,0.28312206268310547,0.0,0.0,0.0,5.302989959716797,0.0,real1,0
1659095922188,6.6749653,-1.567006,-0.3921066224575043,0.6443099975585938,1.394810676574707,0.0,0.0,0.0,7.258554935455322,0.0,real1,0
1659095922391,6.6749653,-1.567006,0.0,0.0,0.6418142318725586,0.0,0.0,0.0,7.258554935455322,0.0,real1,0
1659095922589,6.6749653,-1.567006,-0.2885819673538208,0.3364090919494629,0.722102165222168,0.0,0.0,0.0,7.258554935455322,0.0,real1,0
1659095922789,6.6749653,-1.567006,0.38559800386428833,0.0,-0.5317645072937012,0.0,0.0,0.0,7.258554935455322,0.0,real1,0
1659095922988,6.6749653,-1.567006,-0.2980673015117645,0.0,0.0,0.0,0.0,0.0,7.258554935455322,0.0,real1,0
1659095923193,6.6749653,-1.567006,0.0,0.7566633224487305,1.0881147384643555,-0.21807889640331268,0.0,0.0,7.258554935455322,0.0,real1,0
1659095923392,6.6749653,-1.567006,0.37827420234680176,-0.24317264556884766,1.6082472801208496,0.22602014243602753,0.0,0.0,7.258554935455322,0.0,real1,0
1659095923588,6.6749653,-1.567006,-0.3732491135597229,-1.908799648284912,-3.053776741027832,0.0,0.0,0.40744712948799133,7.258554935455322,0.0,real1,0
1659095923788,6.6749653,-1.567006,2.0867507457733154,-0.41999244689941406,-1.4099831581115723,-0.5002986192703247,-0.3543018400669098,0.0,7.258554935455322,0.0,real1,0
1659095923990,6.6749653,-1.567006,0.0,-0.24892807006835938,-0.3458876609802246,0.0,0.0,0.0,7.258554935455322,0.0,real1,0
1659095924189,6.6749653,-1.567006,0.49236616492271423,-0.21800804138183594,-0.7207169532775879,0.0,0.0,0.0,7.258554935455322,0.0,real1,0
1659095924388,6.6749653,-1.567006,0.6216017603874207,0.0,1.2560548782348633,0.22540926933288574,0.21380282938480377,0.0,7.258554935455322,0.0,real1,0
1659095924588,6.6749653,-1.567006,0.5880700945854187,-0.27712488174438477,0.0,-0.21502456068992615,0.0,0.0,7.258554935455322,0.0,real1,0
1659095924790,6.6749653,-1.567006,0.2623433470726013,-0.41507434844970703,0.5112199783325195,0.0,0.0,0.0,7.258554935455322,0.0,real1,0
1659095924989,6.6749653,-1.567006,0.0,0.0,0.8384237289428711,0.0,0.0,0.0,7.258554935455322,0.0,real1,0
1659095925193,6.6749653,-1.567006,0.0,0.2958354949951172,1.1610984802246094,0.0,0.0,0.0,7.258554935455322,0.0,real1,0
1659095925393,6.6749653,-1.567006,0.0,0.2532997131347656,1.075362205505371,0.0,0.0,0.0,7.258554935455322,0.0,real1,0
1659095925589,6.6749653,-1.567006,0.0,0.0,-0.7352962493896484,0.0,0.0,0.0,7.258554935455322,0.0,real1,0
1659095925789,6.6749653,-1.567006,0.2999483048915863,-0.9763164520263672,-1.1202287673950195,-0.35552358627319336,0.0,0.0,7.258554935455322,0.0,real1,0
1659095925989,6.6749653,-1.567006,0.26811671257019043,-0.28318071365356445,-0.6798715591430664,0.0,0.0,0.0,7.258554935455322,0.0,real1,0
1659095926192,6.6749653,-1.567006,0.61515873670578,-0.4758787155151367,-1.031876564025879,0.0,0.0,0.0,7.258554935455322,0.0,real1,0
1659095926388,6.6752103,-1.5669425,0.0,-0.9136528968811035,1.020033836364746,0.0,0.0,0.0,7.136117935180664,0.0,real1,0
1659095926589,6.6752103,-1.5669425,0.5380518436431885,-0.6964426040649414,1.0247039794921875,0.33597588539123535,0.0,0.0,7.136117935180664,0.0,real1,0
1659095926792,6.6752103,-1.5669425,0.0,-0.38402366638183594,1.3004846572875977,0.0,0.0,0.0,7.136117935180664,0.0,real1,0
1659095926993,6.6752103,-1.5669425,0.0,0.0,-0.3312358856201172,0.0,0.0,0.0,7.136117935180664,0.0,real1,0
1659095927193,6.6752103,-1.5669425,-0.2219640165567398,0.2902994155883789,0.7984113693237305,0.0,0.0,0.0,7.136117935180664,0.0,real1,0
1659095927391,6.6752103,-1.5669425,0.0,0.0,0.0,0.0,0.0,0.0,7.136117935180664,0.0,real1,0
1659095927590,6.6752103,-1.5669425,-0.24455533921718597,0.0,-0.4625883102416992,0.0,0.0,0.0,7.136117935180664,0.0,real1,0
1659095927802,6.6752103,-1.5669425,0.0,0.5676655769348145,1.8067445755004883,-0.24007004499435425,0.0,0.0,7.136117935180664,0.0,real1,0
1659095927989,6.6752103,-1.5669425,0.0,-0.8820047378540039,-1.00358247756958,0.0,0.0,0.0,7.136117935180664,0.0,real1,0
1659095928189,6.6752103,-1.5669425,0.0,0.0,-0.27447032928466797,0.0,0.0,0.0,7.136117935180664,0.0,real1,0
1659095928388,6.6752103,-1.5669425,-0.3657837212085724,0.0,-0.39850807189941406,0.5222898125648499,-0.3139847218990326,0.0,7.136117935180664,0.0,real1,0
1659095928592,6.6752103,-1.5669425,0.4781704545021057,1.7067933082580566,1.5811424255371094,-0.20036379992961884,0.0,0.0,7.136117935180664,0.0,real1,0
1659095928789,6.6752103,-1.5669425,1.0665757656097412,0.0,-2.057490825653076,-0.3738495409488678,0.44287729263305664,0.0,7.136117935180664,0.0,real1,0
1659095928988,6.6752103,-1.5669425,0.0,-1.9547278881072998,-4.790401458740234,-0.8552113175392151,0.504574716091156,0.0,7.136117935180664,0.0,real1,0
1659095929189,6.6752103,-1.5669425,1.2108511924743652,-1.0493943691253662,-3.6127982139587402,-0.6310238242149353,0.22602014243602753,0.0,7.136117935180664,0.0,real1,0
1659095929390,6.6752103,-1.5669425,0.44128119945526123,0.6011919975280762,0.9905128479003906,0.0,0.0,0.0,7.136117935180664,0.0,real1,0
1659095929589,6.6752103,-1.5669425,-0.5359483957290649,0.396517276763916,0.9758796691894531,0.0,0.0,0.0,7.136117935180664,0.0,real1,0
1659095929789,6.6752103,-1.5669425,-1.4343522787094116,0.2394266128540039,1.1856298446655273,0.0,0.0,0.0,7.136117935180664,0.0,real1,0
1659095929990,6.6752103,-1.5669425,0.0,0.0,0.0,0.0,0.0,0.0,7.136117935180664,0.0,real1,0
1659095930191,6.6752103,-1.5669425,-0.9731131792068481,-0.3298015594482422,-1.4745097160339355,0.0,0.0,0.21563543379306793,7.136117935180664,0.0,real1,0
1659095930395,6.6758092,-1.5674423,0.5928698778152466,0.634429931640625,1.8645896911621094,0.0,0.26939156651496887,0.32070425152778625,10.04929256439209,0.0,real1,0
1659095930591,6.6758092,-1.5674423,0.0,0.0,-0.25888681411743164,0.0,0.0,0.0,10.04929256439209,0.0,real1,0
1659095930792,6.6758092,-1.5674423,0.0,0.4475059509277344,1.6799139976501465,0.0,0.0,0.26633724570274353,10.04929256439209,0.0,real1,0
1659095930991,6.6758092,-1.5674423,0.0,0.45293664932250977,0.7230434417724609,0.0,0.0,0.0,10.04929256439209,0.0,real1,0
1659095931188,6.6758092,-1.5674423,1.1628837585449219,0.36785030364990234,0.9995632171630859,0.2926044464111328,0.32681289315223694,0.0,10.04929256439209,0.0,real1,0
1659095931390,6.6758092,-1.5674423,0.0,0.0,-0.36789941787719727,0.0,0.0,0.0,10.04929256439209,0.0,real1,0
1659095931590,6.6758092,-1.5674423,0.0,0.5782279968261719,0.8851642608642578,0.0,0.0,0.0,10.04929256439209,0.0,real1,0
1659095931788,6.6758092,-1.5674423,0.0,0.0,0.0,0.2015855312347412,0.0,0.0,10.04929256439209,0.0,real1,0
1659095931991,6.6758092,-1.5674423,0.4864102005958557,0.0,-0.42853307723999023,0.0,0.0,0.0,10.04929256439209,0.0,real1,0
1659095932189,6.6758092,-1.5674423,-0.22696137428283691,0.6209721565246582,1.084773063659668,0.0,0.0,0.0,10.04929256439209,0.0,real1,0
1659095932392,6.6758092,-1.5674423,0.0,0.0,-1.1802010536193848,0.0,0.0,0.0,10.04929256439209,0.0,real1,0
1659095932589,6.6758092,-1.5674423,-0.6141250133514404,-0.2567739486694336,-1.2900972366333008,-0.21991148591041565,0.0,0.0,10.04929256439209,0.0,real1,0
1659095932791,6.6758092,-1.5674423,0.0,0.5542502403259277,0.6616883277893066,0.0,0.0,0.0,10.04929256439209,0.0,real1,0
1659095932992,6.6758092,-1.5674423,0.0,-0.5738730430603027,-0.30872058868408203,0.0,0.0,0.0,10.04929256439209,0.0,real1,0
1659095933190,6.6758092,-1.5674423,-0.5829606056213379,-0.5673556327819824,-0.748016357421875,0.0,0.0,0.0,10.04929256439209,0.0,real1,0
1659095933390,6.6758092,-1.5674423,0.0,-0.9138813018798828,-1.1842551231384277,0.0,0.0,0.0,10.04929256439209,0.0,real1,0
1659095933589,6.6758092,-1.5674423,-0.6084954738616943,0.4917116165161133,2.297713279724121,0.0,0.0,0.0,10.04929256439209,0.0,real1,0
1659095933790,6.6758092,-1.5674423,0.0,0.0,0.0,0.0,0.0,0.0,10.04929256439209,0.0,real1,0
1659095933990,6.6758092,-1.5674423,0.0,0.0,0.0,0.0,0.0,0.0,10.04929256439209,0.0,real1,0
1659095934189,6.6758092,-1.5674423,-0.2922089099884033,0.0,-0.3680253028869629,0.0,0.0,0.0,10.04929256439209,0.0,real1,0
1659095934390,6.6760727,-1.5674436,0.43580228090286255,0.2966494560241699,1.116166114807129,0.0,0.0,0.0,9.336999893188477,0.0,real1,0
1659095934591,6.6760727,-1.5674436,0.0,0.0,1.1566133499145508,0.0,0.0,0.0,9.336999893188477,0.0,real1,0
1659095934790,6.6761143,-1.5673074,0.0,-0.5975451469421387,-1.3301448822021484,0.0,0.0,0.0,7.473880290985107,0.0,real1,0
1659095934990,6.6761143,-1.5673074,0.0,0.0,0.0,0.0,0.0,0.0,7.473880290985107,0.0,real1,0
1659095935190,6.6761143,-1.5673074,0.0,0.0,-0.2649660110473633,0.0,0.0,0.0,7.473880290985107,0.0,real1,0
1659095935390,6.6761143,-1.5673074,0.0,0.32717418670654297,1.6700716018676758,0.0,0.0,0.0,7.473880290985107,0.0,real1,0
1659095935591,6.6761143,-1.5673074,0.0,0.0,0.2855386734008789,0.0,0.0,0.0,7.473880290985107,0.0,real1,0
1659095935790,6.6761143,-1.5673074,0.0,0.0,0.5420141220092773,0.0,0.0,0.0,7.473880290985107,0.0,real1,0
1659095935990,6.6761143,-1.5673074,0.0,0.0,0.0,0.0,0.0,0.0,7.473880290985107,0.0,real1,0
1659095936190,6.6761143,-1.5673074,0.0,0.0,0.5983152389526367,0.0,0.0,0.0,7.473880290985107,0.0,real1,0
1659095936390,6.6761143,-1.5673074,0.0,0.25924158096313477,1.047067642211914,0.0,0.0,0.0,7.473880290985107,0.0,real1,0
1659095936595,6.6761143,-1.5673074,0.0,0.0,0.3949089050292969,0.0,0.0,0.0,7.473880290985107,0.0,real1,0
1659095936794,6.6761143,-1.5673074,0.0,0.0,0.535369873046875,0.0,0.0,0.0,7.473880290985107,0.0,real1,0
1659095936993,6.6761143,-1.5673074,-0.45866382122039795,0.0,0.0,0.0,0.0,0.0,7.473880290985107,0.0,real1,0
1659095937190,6.6761143,-1.5673074,0.0,0.22167611122131348,1.7865619659423828,0.20097467303276062,0.0,0.0,7.473880290985107,0.0,real1,0
1659095937391,6.6761143,-1.5673074,0.8253832459449768,0.3030681610107422,0.7635211944580078,0.0,0.0,0.0,7.473880290985107,0.0,real1,0
1659095937591,6.6761143,-1.5673074,-0.5140386819839478,-0.5043685436248779,-0.5311040878295898,0.0,0.0,0.0,7.473880290985107,0.0,real1,0
1659095937790,6.6761143,-1.5673074,0.0,0.23021507263183594,0.9280118942260742,0.0,0.0,0.0,7.473880290985107,0.0,real1,0
1659095937990,6.6761143,-1.5673074,-0.20981661975383759,0.6764311790466309,0.8836688995361328,0.0,0.0,0.0,7.473880290985107,0.0,real1,0
1659095938191,6.6761143,-1.5673074,0.0,0.42592716217041016,1.1381416320800781,0.0,0.0,0.0,7.473880290985107,0.0,real1,0
1659095938391,6.6762811,-1.5673806,0.0,0.44094228744506836,0.6833171844482422,0.0,0.0,0.0,6.647937774658203,0.0,real1,0
1659095938588,6.6762811,-1.5673806,-0.34140026569366455,0.0,0.0,0.0,0.0,0.0,6.647937774658203,0.0,real1,0
1659095938792,6.675886,-1.5676264,0.27351999282836914,0.2517251968383789,0.2716226577758789,0.0,0.0,0.0,1.3079880475997925,0.0,real1,0
1659095938993,6.675886,-1.5676264,0.0,0.2558588981628418,0.3017587661743164,0.0,0.0,0.0,1.3079880475997925,0.0,real1,0
1659095939191,6.675886,-1.5676264,0.0,0.0,0.0,0.0,0.0,0.0,1.3079880475997925,0.0,real1,0
1659095939391,6.675886,-1.5676264,0.0,0.3406682014465332,0.23340797424316406,0.0,0.0,0.0,1.3079880475997925,0.0,real1,0
1659095939591,6.675886,-1.5676264,0.2621535360813141,0.9050774574279785,0.0,0.0,0.0,0.0,1.3079880475997925,0.0,real1,0
1659095939791,6.6759629,-1.567525,0.0,0.0,0.0,0.0,0.0,0.0,2.3260717391967773,0.0,real1,0
1659095939995,6.6759629,-1.567525,0.0,0.0,-0.2556319236755371,0.0,0.0,0.0,2.3260717391967773,0.0,real1,0
1659095940191,6.6759629,-1.567525,0.0,0.0,0.0,0.0,0.0,0.0,2.3260717391967773,0.0,real1,0
1659095940391,6.6759629,-1.567525,0.0,0.24708795547485352,0.0,0.0,0.0,0.0,2.3260717391967773,0.0,real1,0
1659095940590,6.6759629,-1.567525,0.0,0.3333096504211426,0.0,0.0,0.0,0.0,2.3260717391967773,0.0,real1,0
1659095940795,6.6759629,-1.567525,0.0,0.0,-0.23149824142456055,0.0,0.0,0.0,2.3260717391967773,0.0,real1,0
1659095940991,6.6759629,-1.567525,-0.30255353450775146,0.22554826736450195,0.21550416946411133,0.0,0.0,0.0,2.3260717391967773,0.0,real1,0
1659095941193,6.6759629,-1.567525,0.2705804407596588,0.39989471435546875,0.22819852828979492,0.0,0.0,0.0,2.3260717391967773,0.0,real1,0
1659095941391,6.6759629,-1.567525,0.0,0.0,0.0,0.0,0.0,0.0,2.3260717391967773,0.0,real1,0
1659095941591,6.6759629,-1.567525,-0.2576078772544861,0.0,-0.4716496467590332,0.0,0.0,0.0,2.3260717391967773,0.0,real1,0
1659095941791,6.6759629,-1.567525,-0.2773395776748657,0.0,0.0,0.0,0.0,0.0,2.3260717391967773,0.0,real1,0
1659095941991,6.6759629,-1.567525,0.41954612731933594,-0.45677804946899414,-0.5241246223449707,0.0,0.20402899384498596,0.0,2.3260717391967773,0.0,real1,0
1659095942192,6.6759629,-1.567525,0.0,0.0,0.964719295501709,0.0,0.0,0.0,2.3260717391967773,0.0,real1,0
1659095942391,6.6759629,-1.567525,-0.43464523553848267,1.0860328674316406,1.9733562469482422,0.0,0.0,0.0,2.3260717391967773,0.0,real1,0
1659095942589,6.6759629,-1.567525,1.2838561534881592,0.45442962646484375,1.5563511848449707,0.0,0.0,0.0,2.3260717391967773,0.0,real1,0
1659095942788,6.6759629,-1.567525,-0.5653130412101746,0.46416521072387695,0.7668642997741699,0.0,0.0,-0.20830504596233368,2.3260717391967773,0.0,real1,0
1659095942989,6.6759629,-1.567525,-0.6373503804206848,0.386080265045166,0.3711228370666504,0.0,0.0,0.0,2.3260717391967773,0.0,real1,0
1659095943189,6.6759629,-1.567525,1.389116883277893,-0.6826539039611816,-1.6233611106872559,0.0,0.3494149148464203,0.0,2.3260717391967773,0.0,real1,0
1659095943388,6.6759629,-1.567525,0.695114016532898,0.4816122055053711,1.0184955596923828,-0.40683624148368835,-0.5632177591323853,-0.35674530267715454,2.3260717391967773,0.0,real1,0
1659095943588,6.6762145,-1.5672904,0.9167919158935547,-1.2227730751037598,-0.3782062530517578,0.2889392673969269,0.0,0.2822197377681732,4.82387113571167,0.0,real1,0
1659095943788,6.6762145,-1.5672904,1.7764523029327393,0.48478126525878906,0.3751850128173828,0.0,0.0,0.0,4.82387113571167,0.0,real1,0
1659095943988,6.6762145,-1.5672904,-1.056436538696289,-0.4790635108947754,-1.1257057189941406,-0.242513507604599,-0.23640485107898712,0.0,4.82387113571167,0.0,real1,0
1659095944188,6.6764308,-1.5671081,0.0,-0.6010479927062988,0.0,0.0,0.0,0.0,7.249925136566162,0.0,real1,0
1659095944388,6.6764308,-1.5671081,0.0,0.0,-0.30366039276123047,0.2877175211906433,0.0,0.0,7.249925136566162,0.0,real1,0
1659095944588,6.6764308,-1.5671081,-0.28891485929489136,0.2072277069091797,2.1530981063842773,0.0,0.0,0.0,7.249925136566162,0.0,real1,0
1659095944788,6.6764308,-1.5671081,0.0,0.0,2.191629409790039,0.20586158335208893,0.0,0.0,7.249925136566162,0.0,real1,0
1659095944989,6.6764308,-1.5671081,0.0,-0.27826595306396484,-0.2670249938964844,0.0,0.0,0.0,7.249925136566162,0.0,real1,0
1659095945188,6.6764308,-1.5671081,-0.24098670482635498,0.0,0.0,0.0,0.0,0.0,7.249925136566162,0.0,real1,0
1659095945389,6.6764308,-1.5671081,0.0,0.37044191360473633,0.351898193359375,0.0,0.0,0.0,7.249925136566162,0.0,real1,0
1659095945588,6.6764308,-1.5671081,-0.20265042781829834,0.0,0.0,0.0,0.0,0.0,7.249925136566162,0.0,real1,0
1659095945789,6.6764308,-1.5671081,0.469952255487442,0.2846503257751465,0.8290872573852539,0.0,0.0,0.0,7.249925136566162,0.0,real1,0
1659095945989,6.6764308,-1.5671081,0.5864332914352417,0.2227325439453125,0.6000795364379883,0.0,0.0,0.0,7.249925136566162,0.0,real1,0
1659095946188,6.6764308,-1.5671081,0.0,0.345888614654541,0.4030618667602539,0.0,0.0,0.0,7.249925136566162,0.0,real1,0
1659095946388,6.6764308,-1.5671081,0.0,-0.31742334365844727,-0.7485427856445312,0.0,0.0,0.0,7.249925136566162,0.0,real1,0
1659095946589,6.6764308,-1.5671081,0.0,0.0,-0.9494600296020508,0.0,0.0,0.0,7.249925136566162,0.0,real1,0
1659095946788,6.6764308,-1.5671081,-0.3371960520744324,0.9949336051940918,1.4887652397155762,0.0,0.0,0.0,7.249925136566162,0.0,real1,0
1659095946989,6.6764308,-1.5671081,0.4213067293167114,1.184201717376709,1.8195385932922363,0.0,0.0,0.0,7.249925136566162,0.0,real1,0
1659095947190,6.6764308,-1.5671081,-0.2767363488674164,0.2302112579345703,0.0,0.0,0.0,0.0,7.249925136566162,0.0,real1,0
1659095947389,6.6764308,-1.5671081,0.6896700859069824,0.5948672294616699,0.39035892486572266,0.0,0.0,0.0,7.249925136566162,0.0,real1,0
1659095947588,6.6764308,-1.5671081,0.0,-0.48667049407958984,-0.6874713897705078,0.0,0.0,0.0,7.249925136566162,0.0,real1,0
1659095947790,6.6764308,-1.5671081,0.0,-0.608250617980957,-0.4283294677734375,0.0,0.0,0.0,7.249925136566162,0.0,real1,0
1659095947988,6.6766246,-1.5668967,0.0,-0.648592472076416,-0.8557162284851074,0.0,0.0,0.0,7.90894889831543,0.0,real1,0
1659095948189,6.6766246,-1.5668967,0.38682401180267334,-0.3652796745300293,-0.8792853355407715,0.0,0.0,0.0,7.90894889831543,0.0,real1,0
1659095948388,6.6766246,-1.5668967,-0.3687424063682556,0.0,0.0,0.0,0.0,0.0,7.90894889831543,0.0,real1,0
1659095948588,6.6766246,-1.5668967,0.987173318862915,-0.3224325180053711,-1.2888011932373047,0.0,0.0,0.0,7.90894889831543,0.0,real1,0
1659095948788,6.6766246,-1.5668967,-0.7865393757820129,-1.4868340492248535,-1.997091293334961,0.3194825351238251,0.0,0.0,7.90894889831543,0.0,real1,0
1659095948989,6.6766246,-1.5668967,0.7027844190597534,0.7689347267150879,2.678962230682373,-0.394618958234787,0.21624629199504852,0.0,7.90894889831543,0.0,real1,0
1659095949188,6.6766246,-1.5668967,0.24343904852867126,-0.7911639213562012,-3.524442672729492,0.0,0.0,0.0,7.90894889831543,0.0,real1,0
1659095949388,6.6766246,-1.5668967,0.3198290467262268,-1.5194859504699707,-0.27181386947631836,0.0,0.0,0.0,7.90894889831543,0.0,real1,0
1659095949588,6.6766246,-1.5668967,-1.1567349433898926,-0.5815510749816895,-0.8423728942871094,0.0,0.0,0.0,7.90894889831543,0.0,real1,0
1659095949788,6.6766246,-1.5668967,0.0,1.4044246673583984,3.923436164855957,0.0,0.0,0.0,7.90894889831543,0.0,real1,0
1659095949989,6.6766246,-1.5668967,0.0,-0.45790719985961914,-0.8242855072021484,0.0,0.0,-0.21502456068992615,7.90894889831543,0.0,real1,0
1659095950188,6.6766246,-1.5668967,1.1954123973846436,-1.4027433395385742,-1.8292417526245117,0.0,0.0,0.0,7.90894889831543,0.0,real1,0
1659095950390,6.6766246,-1.5668967,-0.30026859045028687,-0.5700292587280273,-0.5875210762023926,0.0,0.2119702398777008,0.0,7.90894889831543,0.0,real1,0
1659095950588,6.6766246,-1.5668967,0.2500177025794983,0.5919322967529297,1.0351667404174805,0.0,0.0,0.0,7.90894889831543,0.0,real1,0
1659095950789,6.6766246,-1.5668967,0.23334944248199463,0.5632023811340332,1.091958999633789,0.3805690407752991,0.21074850857257843,0.0,7.90894889831543,0.0,real1,0
1659095950989,6.6766246,-1.5668967,0.7236068248748779,0.6640710830688477,2.885835647583008,0.3885102868080139,-0.20830504596233368,0.0,7.90894889831543,0.0,real1,0
1659095951188,6.6766246,-1.5668967,-0.29458704590797424,0.0,-0.7519640922546387,0.26633724570274353,-0.3176499307155609,0.0,7.90894889831543,0.0,real1,0
1659095951388,6.6766246,-1.5668967,0.0,0.4866781234741211,0.7929630279541016,0.0,0.4245513379573822,0.0,7.90894889831543,0.0,real1,0
1659095951589,6.6767308,-1.5668325,-0.2734925150871277,-2.2079172134399414,-4.704157829284668,0.0,-0.4697553813457489,0.0,6.471375465393066,0.0,real1,0
1659095951788,6.6767308,-1.5668325,0.0,-0.24066162109375,0.6747093200683594,0.22846360504627228,0.25961771607398987,0.0,6.471375465393066,0.0,real1,0
1659095951988,6.6767308,-1.5668325,0.3589370548725128,-0.3605623245239258,0.0,0.0,0.0,0.0,6.471375465393066,0.0,real1,0
1659095952188,6.6767308,-1.5668325,-0.21680442988872528,-0.22811651229858398,-1.0281667709350586,-0.2015855312347412,0.0,0.0,6.471375465393066,0.0,real1,0
1659095952389,6.6767308,-1.5668325,0.0,-0.5730013847351074,-0.9107837677001953,0.0,0.0,0.0,6.471375465393066,0.0,real1,0
1659095952588,6.6767308,-1.5668325,-0.6574708223342896,0.4910860061645508,1.7188200950622559,0.0,0.0,0.0,6.471375465393066,0.0,real1,0
1659095952789,6.6767308,-1.5668325,-0.28580519556999207,1.5591607093811035,2.2564783096313477,0.0,0.0,0.0,6.471375465393066,0.0,real1,0
1659095952989,6.6767308,-1.5668325,0.0,1.3885588645935059,4.443177223205566,-0.23029619455337524,-0.40622538328170776,0.0,6.471375465393066,0.0,real1,0
1659095953188,6.6767308,-1.5668325,0.6788473129272461,-3.1039512157440186,-4.667261123657227,-0.23090706765651703,0.0,0.0,6.471375465393066,0.0,real1,0
1659095953388,6.6767308,-1.5668325,-0.6679834127426147,-0.9505705833435059,0.9690303802490234,0.0,0.0,0.0,6.471375465393066,0.0,real1,0
1659095953588,6.6767308,-1.5668325,0.7959874868392944,-1.2198147773742676,0.6117925643920898,-0.22418753802776337,0.25961771607398987,0.0,6.471375465393066,0.0,real1,0
1659095953791,6.6767308,-1.5668325,-0.9569947719573975,-2.446211099624634,-0.980494499206543,0.0,-0.36224308609962463,0.0,6.471375465393066,0.0,real1,0
1659095953988,6.6767308,-1.5668325,0.22023004293441772,-2.7979514598846436,0.0,-0.28527405858039856,0.0,0.0,6.471375465393066,0.0,real1,0
1659095954189,6.6767308,-1.5668325,-0.2334860861301422,0.7528886795043945,7.686314105987549,-0.35124751925468445,0.0,0.0,6.471375465393066,0.0,real1,0
1659095954388,6.6767308,-1.5668325,0.0,-0.8865675926208496,5.525579929351807,-0.48197266459465027,0.23579397797584534,0.0,6.471375465393066,0.0,real1,0
1659095954589,6.6767308,-1.5668325,0.0,-2.557560443878174,-0.4113039970397949,-0.313373863697052,0.0,0.22113321721553802,6.471375465393066,0.0,real1,0
1659095954788,6.6768268,-1.5667479,-0.5534942746162415,-2.7302772998809814,-1.9800386428833008,-0.3891211748123169,0.0,0.0,6.07537317276001,0.0,real1,0
1659095954990,6.6768268,-1.5667479,0.0,0.0,3.403506278991699,-0.24007004499435425,0.0,0.21502456068992615,6.07537317276001,0.0,real1,0
1659095955188,6.6768268,-1.5667479,-1.4395945072174072,-2.482700824737549,-0.42736005783081055,0.3127630054950714,0.0,0.0,6.07537317276001,0.0,real1,0
1659095955389,6.6768268,-1.5667479,0.5814248323440552,0.0,1.9652528762817383,0.21868975460529327,0.0,0.0,6.07537317276001,0.0,real1,0
1659095955589,6.6768268,-1.5667479,-0.7235318422317505,-0.8215293884277344,-0.5508990287780762,-0.3127630054950714,-0.2021963894367218,0.0,6.07537317276001,0.0,real1,0
1659095955789,6.6768268,-1.5667479,0.4855092763900757,0.2671799659729004,0.7319450378417969,0.0,0.0,-0.2382374405860901,6.07537317276001,0.0,real1,0
1659095955989,6.6768939,-1.5666962,-0.2665035128593445,0.0,-0.41217517852783203,0.0,-0.2785545587539673,-0.303600013256073,5.31371545791626,0.0,real1,0
1659095956188,6.6768939,-1.5666962,-0.3265361785888672,0.6309051513671875,-1.5474934577941895,0.0,-0.4905247986316681,-0.30970868468284607,5.31371545791626,0.0,real1,0
1659095956388,6.6768939,-1.5666962,-0.7209998965263367,0.0,0.6519393920898438,-0.25473082065582275,-0.35552358627319336,-0.26083946228027344,5.31371545791626,0.0,real1,0
1659095956589,6.6768939,-1.5666962,0.0,2.4046401977539062,1.0196924209594727,0.0,0.0,0.0,5.31371545791626,0.0,real1,0
1659095956790,6.6768939,-1.5666962,-0.3359121084213257,-1.203254222869873,-0.7125883102416992,0.0,-0.2816088795661926,-0.25106561183929443,5.31371545791626,0.0,real1,0
1659095956988,6.6768939,-1.5666962,0.0,0.43695545196533203,2.873955249786377,0.0,-0.35735616087913513,-0.3066543638706207,5.31371545791626,0.0,real1,0
1659095957188,6.6768939,-1.5666962,-0.24210691452026367,0.0,3.3746490478515625,0.40622538328170776,0.0,0.0,5.31371545791626,0.0,real1,0
1659095957388,6.6768939,-1.5666962,0.0,-0.3647274971008301,-0.7053065299987793,0.0,0.0,-0.33536502718925476,5.31371545791626,0.0,real1,0
1659095957589,6.6768939,-1.5666962,-0.5324428081512451,1.1822810173034668,2.6150102615356445,0.0,0.0,-0.4043927788734436,5.31371545791626,0.0,real1,0
1659095957789,6.6768939,-1.5666962,1.2708773612976074,-0.9167618751525879,-2.364779472351074,0.0,0.28466320037841797,-0.475253164768219,5.31371545791626,0.0,real1,0
1659095957988,6.6768939,-1.5666962,-0.6551656723022461,-0.9926037788391113,-2.6416192054748535,-0.3597996234893799,0.0,-0.4202753007411957,5.31371545791626,0.0,real1,0
1659095958189,6.6768939,-1.5666962,0.5806748867034912,0.0,-0.4015035629272461,0.0,0.2987131178379059,-0.3549126982688904,5.31371545791626,0.0,real1,0
1659095958389,6.6769372,-1.5666609,0.8470507860183716,-0.3217635154724121,0.32506847381591797,0.0,-0.32131510972976685,-0.4306600093841553,4.8918070793151855,0.0,real1,0
1659095958588,6.6769372,-1.5666609,-0.35223281383514404,0.7920174598693848,1.631134033203125,0.0,-0.4447098970413208,-0.31459560990333557,4.8918070793151855,0.0,real1,0
1659095958788,6.6769372,-1.5666609,0.5840804576873779,0.0,0.0,0.2174680233001709,0.0,-0.36224308609962463,4.8918070793151855,0.0,real1,0
1659095958988,6.6769372,-1.5666609,0.0,0.2413949966430664,0.25631046295166016,0.0,-0.2730567753314972,-0.41599923372268677,4.8918070793151855,0.0,real1,0
1659095959191,6.6769372,-1.5666609,0.0,0.0,0.3826408386230469,0.0,0.0,-0.44165557622909546,4.8918070793151855,0.0,real1,0
1659095959389,6.6769372,-1.5666609,0.0,0.0,0.945772647857666,0.0,0.0,-0.42149701714515686,4.8918070793151855,0.0,real1,0
1659095959589,6.6769372,-1.5666609,-0.5734437108039856,0.30087804794311523,0.7927250862121582,0.0,0.0,-0.2474004179239273,4.8918070793151855,0.0,real1,0
1659095959790,6.6769372,-1.5666609,0.0,-0.3042316436767578,-1.3063740730285645,0.0,-0.3634648323059082,0.0,4.8918070793151855,0.0,real1,0
1659095959989,6.6769372,-1.5666609,0.0,-0.23531436920166016,0.0,0.21624629199504852,0.0,0.0,4.8918070793151855,0.0,real1,0
1659095960188,6.6769372,-1.5666609,0.0,0.7394676208496094,1.7764477729797363,0.0,0.0,0.0,4.8918070793151855,0.0,real1,0
1659095960389,6.6768285,-1.5667672,-0.3535030782222748,-0.507819652557373,-0.9009079933166504,0.0,0.0,0.0,3.134242296218872,0.0,real1,0
1659095960592,6.6768285,-1.5667672,0.4481951594352722,1.1119742393493652,1.6979098320007324,0.0,0.0,0.0,3.134242296218872,0.0,real1,0
1659095960789,6.6768285,-1.5667672,-0.5318824648857117,0.0,0.0,0.0,0.0,0.0,3.134242296218872,0.0,real1,0
1659095960989,6.6768285,-1.5667672,0.0,0.0,0.0,0.0,0.0,0.0,3.134242296218872,0.0,real1,0
1659095961188,6.6768285,-1.5667672,0.314919650554657,0.0,0.0,0.0,0.0,0.0,3.134242296218872,0.0,real1,0
1659095961395,6.6768285,-1.5667672,-0.3031354546546936,0.0,0.26354217529296875,0.0,0.0,0.0,3.134242296218872,0.0,real1,0
1659095961589,6.6768285,-1.5667672,0.7169342041015625,0.5885763168334961,1.6041765213012695,0.2382374405860901,0.0,0.0,3.134242296218872,0.0,real1,0
1659095961788,6.6768285,-1.5667672,0.0,-0.419588565826416,-0.8057518005371094,0.0,0.0,0.0,3.134242296218872,0.0,real1,0
1659095961989,6.6768285,-1.5667672,0.0,0.0,0.0,0.0,0.0,0.0,3.134242296218872,0.0,real1,0
1659095962192,6.6768285,-1.5667672,0.7583918571472168,0.0,0.7380557060241699,0.0,0.0,0.0,3.134242296218872,0.0,real1,0
1659095962388,6.6768285,-1.5667672,0.0,-0.6115322113037109,-0.8538827896118164,0.0,0.0,0.0,3.134242296218872,0.0,real1,0
1659095962588,6.6768285,-1.5667672,0.6460052728652954,-0.9590396881103516,-1.8561315536499023,0.0,0.0,0.0,3.134242296218872,0.0,real1,0
1659095962789,6.6768285,-1.5667672,-0.20237988233566284,-0.2786240577697754,-0.23892831802368164,0.0,0.0,0.0,3.134242296218872,0.0,real1,0
1659095962993,6.6768285,-1.5667672,-0.7171914577484131,-0.393435001373291,-0.44568777084350586,0.0,0.0,0.0,3.134242296218872,0.0,real1,0
1659095963188,6.6768285,-1.5667672,0.7158663272857666,0.5928440093994141,2.154477119445801,0.3274237811565399,0.0,0.0,3.134242296218872,0.0,real1,0
1659095963388,6.6768285,-1.5667672,-0.22094738483428955,0.6290874481201172,1.038956642150879,0.0,0.0,0.0,3.134242296218872,0.0,real1,0
1659095963588,6.6768285,-1.5667672,0.0,0.0,0.5027170181274414,0.4495968222618103,0.0,0.0,3.134242296218872,0.0,real1,0
1659095963791,6.6768285,-1.5667672,-0.8798230886459351,0.0,-0.6458487510681152,0.0,0.0,0.0,3.134242296218872,0.0,real1,0
1659095963988,6.6767043,-1.5668832,0.3823828399181366,-0.6769161224365234,-0.9297561645507812,0.0,0.0,0.0,0.0044207083992660046,0.0,real1,0
1659095964188,6.6767043,-1.5668832,-0.6699739098548889,0.0,-1.0770206451416016,-0.24434609711170197,0.0,0.2021963894367218,0.0044207083992660046,0.0,real1,0
1659095964388,6.6767043,-1.5668832,0.0,0.6280035972595215,0.33464908599853516,0.0,0.0,0.0,0.0044207083992660046,0.0,real1,0
1659095964592,6.6767043,-1.5668832,0.30385100841522217,0.4925880432128906,0.3160262107849121,0.0,0.0,0.0,0.0044207083992660046,0.0,real1,0
1659095964788,6.6767043,-1.5668832,-0.25066623091697693,0.23343753814697266,0.3953518867492676,0.0,0.0,0.0,0.0044207083992660046,0.0,real1,0
1659095964988,6.6767043,-1.5668832,-0.2731029689311981,0.8292088508605957,1.5196866989135742,-0.20891591906547546,0.0,0.0,0.0044207083992660046,0.0,real1,0
1659095965190,6.6767043,-1.5668832,0.0,0.0,0.0,0.0,0.0,0.0,0.0044207083992660046,0.0,real1,0
1659095965388,6.6767043,-1.5668832,-0.4540477395057678,-0.6816744804382324,-1.1988844871520996,0.0,0.0,0.0,0.0044207083992660046,0.0,real1,0
1659095965589,6.6767043,-1.5668832,0.32613879442214966,0.0,-0.3482480049133301,0.0,0.0,0.0,0.0044207083992660046,0.0,real1,0
1659095965790,6.676705,-1.5668838,-0.4882170557975769,0.35831117630004883,0.46934938430786133,0.0,0.0,0.0,0.009638985618948936,0.0,real1,0
1659095965988,6.676705,-1.5668838,0.26953503489494324,0.0,0.0,0.0,0.0,0.0,0.009638985618948936,0.0,real1,0
1659095966189,6.676705,-1.5668838,-0.6777194738388062,-0.30057716369628906,-0.9770946502685547,-0.2278527319431305,0.0,0.0,0.009638985618948936,0.0,real1,0
1659095966388,6.676705,-1.5668838,0.0,0.4219532012939453,0.7408566474914551,0.23273965716362,0.0,0.0,0.009638985618948936,0.0,real1,0
1659095966589,6.676705,-1.5668838,-0.4359806776046753,-0.38111066818237305,-1.3571181297302246,0.0,0.0,0.0,0.009638985618948936,0.0,real1,0
1659095966788,6.676705,-1.5668838,0.0,0.8874392509460449,1.1309843063354492,0.0,0.0,0.0,0.009638985618948936,0.0,real1,0
1659095966988,6.676705,-1.5668838,-0.6404549479484558,0.43073415756225586,0.0,0.0,0.0,0.0,0.009638985618948936,0.0,real1,0
1659095967188,6.676705,-1.5668838,0.27469995617866516,0.0,0.3179159164428711,0.0,0.0,0.0,0.009638985618948936,0.0,real1,0
1659095967388,6.676705,-1.5668838,0.0,-0.6160316467285156,-0.6084194183349609,0.0,0.0,0.0,0.009638985618948936,0.0,real1,0
1659095967588,6.676705,-1.5668838,0.35147982835769653,-0.8287053108215332,-0.49817562103271484,0.0,0.0,0.0,0.009638985618948936,0.0,real1,0
1659095967789,6.676705,-1.5668838,-0.4823008179664612,0.2945070266723633,0.688481330871582,0.0,0.0,0.0,0.009638985618948936,0.0,real1,0
1659095967988,6.6766845,-1.5668668,0.8335433006286621,-0.39199352264404297,-0.8874282836914062,0.0,0.0,0.0,0.3192325830459595,0.0,real1,0
1659095968189,6.6766845,-1.5668668,0.0,-0.7421374320983887,-0.47638511657714844,0.0,0.0,0.0,0.3192325830459595,0.0,real1,0
1659095968389,6.6766845,-1.5668668,0.6626957654953003,0.6948981285095215,0.4307680130004883,0.0,0.0,0.0,0.3192325830459595,0.0,real1,0
1659095968590,6.6766845,-1.5668668,0.0,-0.23006343841552734,0.0,0.0,0.0,0.0,0.3192325830459595,0.0,real1,0
1659095968788,6.6766845,-1.5668668,-1.1279832124710083,0.2033982276916504,1.0683960914611816,0.0,0.0,0.0,0.3192325830459595,0.0,real1,0
1659095968989,6.6766845,-1.5668668,-0.4167221784591675,0.6644291877746582,0.8014140129089355,0.0,0.0,0.0,0.3192325830459595,0.0,real1,0
1659095969189,6.6766845,-1.5668668,0.0,-0.6194038391113281,0.6725459098815918,0.0,0.0,0.0,0.3192325830459595,0.0,real1,0
1659095969388,6.6766386,-1.5668168,0.0,0.433351993560791,0.0,0.0,0.0,0.0,1.1336963176727295,0.0,real1,0
1659095969588,6.6766386,-1.5668168,-0.7706024050712585,0.37781763076782227,0.0,0.0,0.0,0.0,1.1336963176727295,0.0,real1,0
1659095969788,6.6764563,-1.5669207,0.0,-0.7780017852783203,-1.058889389038086,0.0,0.0,0.0,4.989286422729492,0.0,real1,0
1659095969988,6.6764563,-1.5669207,0.0,-0.28628063201904297,0.0,0.2718350291252136,0.0,0.0,4.989286422729492,0.0,real1,0
1659095970188,6.6764563,-1.5669207,0.0,0.4242124557495117,0.6618342399597168,0.0,0.0,0.0,4.989286422729492,0.0,real1,0
1659095970389,6.6764563,-1.5669207,0.0,0.0,-0.30250024795532227,0.0,0.0,0.0,4.989286422729492,0.0,real1,0
1659095970588,6.6764563,-1.5669207,-0.6173872351646423,-0.5243048667907715,-1.4302878379821777,0.0,0.22113321721553802,0.0,4.989286422729492,0.0,real1,0
1659095970790,6.6764563,-1.5669207,0.0,-0.6490917205810547,-0.6500883102416992,0.0,0.0,0.0,4.989286422729492,0.0,real1,0
1659095970988,6.6764563,-1.5669207,0.23751187324523926,0.22626066207885742,0.48481178283691406,0.0,0.0,0.0,4.989286422729492,0.0,real1,0
1659095971188,6.6764563,-1.5669207,0.0,0.0,0.0,0.0,0.0,0.0,4.989286422729492,0.0,real1,0
1659095971388,6.6764563,-1.5669207,0.0,0.5447096824645996,0.9390931129455566,0.0,0.0,0.0,4.989286422729492,0.0,real1,0
1659095971588,6.6764563,-1.5669207,0.3741965889930725,0.0,0.38313770294189453,0.0,0.0,0.0,4.989286422729492,0.0,real1,0
1659095971788,6.6764563,-1.5669207,0.0,-0.5907959938049316,-1.8147773742675781,0.0,0.0,0.0,4.989286422729492,0.0,real1,0
1659095971988,6.6764563,-1.5669207,0.0,0.475435733795166,1.3550958633422852,0.0,0.0,0.0,4.989286422729492,0.0,real1,0
1659095972188,6.6764563,-1.5669207,0.0,0.0,0.0,0.0,0.0,0.0,4.989286422729492,0.0,real1,0
1659095972389,6.6764563,-1.5669207,0.0,0.8019661903381348,1.5794835090637207,0.0,0.0,0.0,4.989286422729492,0.0,real1,0
1659095972589,6.6764563,-1.5669207,0.0,0.24258947372436523,0.7815990447998047,0.0,0.0,0.0,4.989286422729492,0.0,real1,0
1659095972788,6.6764563,-1.5669207,0.0,-0.21740007400512695,-0.2799210548400879,0.0,0.0,0.0,4.989286422729492,0.0,real1,0
1659095972988,6.676553,-1.5668102,0.0,0.6255903244018555,0.7700700759887695,0.0,0.0,0.0,5.15922737121582,0.0,real1,0
1659095973188,6.676553,-1.5668102,0.0,0.0,0.4488983154296875,0.0,0.0,0.0,5.15922737121582,0.0,real1,0
1659095973388,6.676553,-1.5668102,0.39411577582359314,0.0,-0.6020398139953613,0.0,0.0,0.0,5.15922737121582,0.0,real1,0
1659095973588,6.6765735,-1.5667833,0.0,0.5207781791687012,0.6485419273376465,0.0,0.0,0.0,5.219672679901123,0.0,real1,0
1659095973789,6.6765735,-1.5667833,0.0,0.0,-0.754295825958252,0.0,0.0,0.0,5.219672679901123,0.0,real1,0
1659095973989,6.6765735,-1.5667833,-0.23641498386859894,-0.9055752754211426,-1.1983833312988281,-0.2028072625398636,0.0,0.0,5.219672679901123,0.0,real1,0
1659095974189,6.6765735,-1.5667833,0.0,0.0,0.0,0.0,0.0,0.0,5.219672679901123,0.0,real1,0
1659095974389,6.6764537,-1.5667162,-0.8782738447189331,0.8767805099487305,1.881474494934082,0.0,0.0,0.0,4.377523899078369,0.0,real1,0
1659095974589,6.6764537,-1.5667162,-0.9724953770637512,0.6341972351074219,0.2322378158569336,0.0,0.0,0.0,4.377523899078369,0.0,real1,0
1659095974788,6.6764537,-1.5667162,0.4494790732860565,-0.41247081756591797,-0.6996941566467285,0.0,0.0,0.0,4.377523899078369,0.0,real1,0
1659095974988,6.6764537,-1.5667162,0.0,0.0,0.20681190490722656,0.0,0.0,0.0,4.377523899078369,0.0,real1,0
1659095975189,6.6764537,-1.5667162,0.0,0.30156469345092773,1.0126447677612305,0.0,0.0,0.0,4.377523899078369,0.0,real1,0
1659095975388,6.6764537,-1.5667162,-0.8681153059005737,0.0,1.7350177764892578,0.0,0.0,0.0,4.377523899078369,0.0,real1,0
1659095975589,6.6764537,-1.5667162,0.0,-0.3745994567871094,-0.7052755355834961,0.0,0.0,0.0,4.377523899078369,0.0,real1,0
1659095975788,6.6764184,-1.5666619,0.0,-0.3085169792175293,-0.7393746376037598,0.0,0.0,0.0,4.342553615570068,0.0,real1,0
1659095975989,6.6764184,-1.5666619,-0.495699405670166,0.27485179901123047,0.914238452911377,0.0,0.0,0.0,4.342553615570068,0.0,real1,0
1659095976188,6.6762516,-1.5666085,-0.24788767099380493,0.5473875999450684,1.335597038269043,0.0,0.0,0.0,4.4168572425842285,0.0,real1,0
1659095976388,6.6762516,-1.5666085,0.0,0.0,-0.21571874618530273,0.0,0.0,0.0,4.4168572425842285,0.0,real1,0
1659095976589,6.6762516,-1.5666085,0.0,0.23281574249267578,0.2945237159729004,0.0,0.0,0.0,4.4168572425842285,0.0,real1,0
1659095976788,6.6762516,-1.5666085,0.25059476494789124,0.36437368392944336,2.1917572021484375,0.0,0.0,0.0,4.4168572425842285,0.0,real1,0
1659095976989,6.6762516,-1.5666085,-0.3636854290962219,-0.27462005615234375,-0.443845272064209,0.0,0.0,0.0,4.4168572425842285,0.0,real1,0
1659095977188,6.6762516,-1.5666085,0.0,-0.21106815338134766,-0.22968149185180664,0.0,0.0,0.0,4.4168572425842285,0.0,real1,0
1659095977436,6.6762516,-1.5666085,0.2356489598751068,-0.24156618118286133,0.4048318862915039,0.0,0.0,0.0,4.4168572425842285,0.0,real1,0
1659095977590,6.6762516,-1.5666085,-0.3862495720386505,0.928952693939209,0.9461197853088379,0.0,0.0,0.0,4.4168572425842285,0.0,real1,0
1659095977791,6.6762516,-1.5666085,0.3918662667274475,0.0,0.7651634216308594,0.0,0.0,0.0,4.4168572425842285,0.0,real1,0
1659095977990,6.6762516,-1.5666085,0.3355560600757599,0.0,0.39020586013793945,0.0,0.0,0.0,4.4168572425842285,0.0,real1,0
1659095978191,6.6762516,-1.5666085,0.0,0.0,0.22902488708496094,0.0,0.0,0.0,4.4168572425842285,0.0,real1,0
1659095978389,6.6762516,-1.5666085,0.0,0.0,0.0,0.0,0.0,0.0,4.4168572425842285,0.0,real1,0
1659095978588,6.6762516,-1.5666085,0.0,0.0,0.0,0.0,0.0,0.0,4.4168572425842285,0.0,real1,0
1659095978788,6.6762516,-1.5666085,0.0,0.0,0.0,0.0,0.0,0.0,4.4168572425842285,0.0,real1,0
1659095978992,6.6762516,-1.5666085,0.0,0.0,0.0,0.0,0.0,0.0,4.4168572425842285,0.0,real1,0
1659095979192,6.6758499,-1.566652,0.0,0.0,0.0,0.0,0.0,0.0,5.7259674072265625,0.0,real1,0
1659095979393,6.6758499,-1.566652,-0.23380857706069946,0.0,0.0,0.0,0.0,0.0,5.7259674072265625,0.0,real1,0
1659095979591,6.6758499,-1.566652,0.3706754148006439,0.0,0.0,0.0,0.0,0.0,5.7259674072265625,0.0,real1,0
1659095979790,6.6758103,-1.5664875,0.7052727341651917,0.7928061485290527,1.774888515472412,0.0,0.0,0.0,6.765019416809082,0.0,real1,0
1659095979992,6.6758103,-1.5664875,0.5534497499465942,0.40319347381591797,0.6504864692687988,0.0,0.0,0.0,6.765019416809082,0.0,real1,0
1659095980190,6.6758103,-1.5664875,0.3434174358844757,-0.40341663360595703,-0.8946800231933594,0.23273965716362,0.0,0.0,6.765019416809082,0.0,real1,0
1659095980390,6.6758103,-1.5664875,0.3827781081199646,-0.7436857223510742,-1.2966485023498535,0.0,0.0,0.0,6.765019416809082,0.0,real1,0
1659095980591,6.6758103,-1.5664875,0.3303413689136505,-0.28577470779418945,-1.0191998481750488,0.2730567753314972,0.0,0.0,6.765019416809082,0.0,real1,0
1659095980792,6.6758103,-1.5664875,0.0,-0.22118520736694336,-0.3629598617553711,0.0,0.0,0.0,6.765019416809082,0.0,real1,0
1659095980990,6.6758103,-1.5664875,0.7094427347183228,1.5832266807556152,2.088007926940918,0.0,0.0,0.0,6.765019416809082,0.0,real1,0
1659095981190,6.6756782,-1.565871,-0.2022659182548523,0.8202390670776367,1.5680723190307617,0.0,0.0,0.0,10.0872163772583,0.0,real1,0
1659095981390,6.6756782,-1.565871,0.0,0.9352502822875977,1.2270622253417969,0.0,0.0,0.0,10.0872163772583,0.0,real1,0
1659095981590,6.6756782,-1.565871,0.537257730960846,0.9563412666320801,0.8155531883239746,0.0,0.0,0.0,10.0872163772583,0.0,real1,0
1659095981790,6.6756782,-1.565871,0.0,0.0,-0.42708873748779297,0.0,0.0,0.0,10.0872163772583,0.0,real1,0
1659095981990,6.6756782,-1.565871,0.4368152618408203,-0.541935920715332,-1.4089198112487793,0.0,0.0,0.0,10.0872163772583,0.0,real1,0
1659095982191,6.6756782,-1.565871,-0.4022131860256195,-1.092386245727539,-2.051541805267334,0.0,0.0,0.0,10.0872163772583,0.0,real1,0
1659095982393,6.6756782,-1.565871,-0.2911919951438904,0.0,0.22069263458251953,0.0,0.0,0.0,10.0872163772583,0.0,real1,0
1659095982591,6.6756782,-1.565871,0.0,0.0,0.0,0.0,0.0,0.0,10.0872163772583,0.0,real1,0
1659095982829,6.6756782,-1.565871,-0.6609461903572083,0.7399935722351074,1.7738008499145508,0.0,0.0,0.0,10.0872163772583,0.0,real1,0
1659095982994,6.6756782,-1.565871,1.1924816370010376,-0.6110272407531738,-0.7422318458557129,0.0,0.0,0.0,10.0872163772583,0.0,real1,0
1659095983189,6.6756782,-1.565871,-0.20919710397720337,-1.2526021003723145,-1.8584837913513184,0.0,0.0,0.0,10.0872163772583,0.0,real1,0
1659095983390,6.6756782,-1.565871,0.7753381729125977,-1.5421319007873535,-1.7557249069213867,0.0,0.0,0.0,10.0872163772583,0.0,real1,0
1659095983591,6.6756782,-1.565871,0.4323330223560333,-0.7605981826782227,-0.9871392250061035,0.2681698501110077,0.0,0.0,10.0872163772583,0.0,real1,0
1659095983789,6.6756782,-1.565871,1.1094107627868652,-0.8926815986633301,-0.4061107635498047,0.0,0.0,0.0,10.0872163772583,0.0,real1,0
1659095983988,6.6756782,-1.565871,-0.3440098166465759,-1.140857219696045,-1.3484597206115723,-0.37629300355911255,0.0,0.0,10.0872163772583,0.0,real1,0
1659095984188,6.6756782,-1.565871,0.0,-0.672579288482666,0.0,0.0,0.0,0.0,10.0872163772583,0.0,real1,0
1659095984389,6.6756782,-1.565871,-0.358939528465271,-0.6292085647583008,-0.5039787292480469,0.0,0.0,0.0,10.0872163772583,0.0,real1,0
1659095984588,6.6756782,-1.565871,0.0,0.0,0.0,0.0,0.0,0.0,10.0872163772583,0.0,real1,0
1659095984788,6.6756782,-1.565871,-0.2907899022102356,1.3865861892700195,3.3032431602478027,0.0,-0.22113321721553802,0.0,10.0872163772583,0.0,real1,0
1659095984988,6.6757913,-1.5653666,0.0,1.2592887878417969,1.0531563758850098,0.32498031854629517,0.0,0.0,10.541763305664062,0.0,real1,0
1659095985188,6.6757913,-1.5653666,1.0503838062286377,-0.2601046562194824,-1.2546987533569336,0.0,0.29077184200286865,0.0,10.541763305664062,0.0,real1,0
1659095985388,6.6757913,-1.5653666,0.24876245856285095,-0.3879976272583008,0.20826005935668945,0.0,0.0,0.0,10.541763305664062,0.0,real1,0
1659095985588,6.6757913,-1.5653666,-0.27457451820373535,1.0895195007324219,1.7545247077941895,0.0,0.0,0.0,10.541763305664062,0.0,real1,0
1659095985788,6.6757913,-1.5653666,-0.30630582571029663,-1.0630722045898438,-1.5220627784729004,0.0,0.0,0.0,10.541763305664062,0.0,real1,0
1659095985989,6.6757913,-1.5653666,-0.34571751952171326,-0.4031805992126465,-0.456143856048584,-0.27488934993743896,0.0,0.0,10.541763305664062,0.0,real1,0
1659095986188,6.6757913,-1.5653666,-0.3290451765060425,0.3520364761352539,0.0,0.0,0.0,0.0,10.541763305664062,0.0,real1,0
1659095986389,6.6757913,-1.5653666,0.30858314037323,-0.7008886337280273,-0.7002596855163574,0.0,0.0,0.0,10.541763305664062,0.0,real1,0
1659095986588,6.6757913,-1.5653666,0.0,-0.36287879943847656,-0.4136543273925781,0.0,0.0,0.0,10.541763305664062,0.0,real1,0
1659095986789,6.6757913,-1.5653666,0.0,0.0,0.2107853889465332,0.0,0.0,0.0,10.541763305664062,0.0,real1,0
1659095986988,6.6757913,-1.5653666,0.0,-0.684239387512207,-0.4510955810546875,0.0,0.0,0.0,10.541763305664062,0.0,real1,0
1659095987188,6.6757913,-1.5653666,-0.3084458112716675,-0.5975627899169922,-1.2805542945861816,0.0,0.0,0.0,10.541763305664062,0.0,real1,0
1659095987388,6.6757913,-1.5653666,0.0,0.36455726623535156,2.206662178039551,0.0,0.0,0.0,10.541763305664062,0.0,real1,0
1659095987589,6.6757913,-1.5653666,0.0,0.0,1.5662989616394043,0.0,0.0,0.0,10.541763305664062,0.0,real1,0
1659095987789,6.6757913,-1.5653666,0.0,-0.6164369583129883,-2.001678466796875,0.0,0.0,0.0,10.541763305664062,0.0,real1,0
1659095987988,6.6757913,-1.5653666,-0.9473410844802856,0.0,-1.6923398971557617,0.0,0.0,0.0,10.541763305664062,0.0,real1,0
1659095988188,6.6757913,-1.5653666,0.0,1.85933256149292,2.0984268188476562,0.0,0.0,0.0,10.541763305664062,0.0,real1,0
1659095988388,6.6757913,-1.5653666,0.0,0.0,-0.4137101173400879,0.0,0.0,0.0,10.541763305664062,0.0,real1,0
1659095988588,6.6757913,-1.5653666,-0.20671015977859497,0.0,0.30579376220703125,0.0,0.0,0.0,10.541763305664062,0.0,real1,0
1659095988793,6.6758826,-1.5651895,0.0,-1.0122990608215332,-3.014768600463867,0.33719760179519653,0.0,0.0,8.867298126220703,0.0,real1,0
1659095988991,6.6758826,-1.5651895,0.4074866771697998,0.6997823715209961,1.2236218452453613,0.0,0.0,0.0,8.867298126220703,0.0,real1,0
1659095989198,6.6758826,-1.5651895,0.550857663154602,-0.39842653274536133,0.0,0.20891591906547546,0.2370157092809677,0.0,8.867298126220703,0.0,real1,0
1659095989419,6.6758826,-1.5651895,1.0667014122009277,-0.8910927772521973,-1.6067218780517578,0.0,0.0,0.0,8.867298126220703,0.0,real1,0
1659095989600,6.6758826,-1.5651895,0.0,-0.7575063705444336,-0.723844051361084,-0.2583959996700287,0.0,0.0,8.867298126220703,0.0,real1,0
1659095989789,6.6758826,-1.5651895,0.0,-0.666867733001709,-1.4958195686340332,0.0,0.0,0.0,8.867298126220703,0.0,real1,0
1659095989988,6.6758826,-1.5651895,1.0840458869934082,-0.5041947364807129,0.6522259712219238,0.0,0.0,0.0,8.867298126220703,0.0,real1,0
1659095990188,6.6758826,-1.5651895,0.0,-0.2040729522705078,-1.2254033088684082,0.0,0.0,0.0,8.867298126220703,0.0,real1,0
1659095990389,6.6758826,-1.5651895,0.0,-0.3439369201660156,-0.8159594535827637,0.0,0.0,0.0,8.867298126220703,0.0,real1,0
1659095990588,6.6758826,-1.5651895,-0.6603915095329285,0.8391728401184082,0.395233154296875,0.0,0.0,0.0,8.867298126220703,0.0,real1,0
1659095990789,6.6758826,-1.5651895,-0.5497646331787109,2.04302978515625,2.4699764251708984,-0.2620611786842346,0.0,0.0,8.867298126220703,0.0,real1,0
1659095990990,6.6758826,-1.5651895,0.0,-0.5119309425354004,-1.0936393737792969,0.0,0.0,0.0,8.867298126220703,0.0,real1,0
1659095991189,6.6758826,-1.5651895,0.0,0.0,0.2244400978088379,0.0,0.0,0.0,8.867298126220703,0.0,real1,0
1659095991388,6.6758826,-1.5651895,-0.36613357067108154,-0.6727471351623535,-0.3679838180541992,0.0,0.0,0.0,8.867298126220703,0.0,real1,0
1659095991588,6.6758826,-1.5651895,0.0,-0.6640181541442871,-0.895442008972168,0.0,0.0,0.0,8.867298126220703,0.0,real1,0
1659095991789,6.6758826,-1.5651895,-0.2620895504951477,-0.7736601829528809,0.0,0.0,0.0,0.0,8.867298126220703,0.0,real1,0
1659095991989,6.6758826,-1.5651895,0.0,0.0,2.288374900817871,0.251676470041275,0.0,0.0,8.867298126220703,0.0,real1,0
1659095992188,6.6758826,-1.5651895,0.0,-0.5528173446655273,-0.4657869338989258,0.0,0.0,0.0,8.867298126220703,0.0,real1,0
1659095992389,6.6759376,-1.564864,0.0,-0.5980281829833984,-0.29685211181640625,0.0,0.0,0.0,9.501598358154297,0.0,real1,0
1659095992590,6.6759376,-1.564864,0.37348777055740356,0.0,0.6535511016845703,0.0,0.0,0.0,9.501598358154297,0.0,real1,0
1659095992790,6.6759376,-1.564864,-0.4197220802307129,-0.7343816757202148,-0.6291399002075195,-0.21930062770843506,0.0,0.0,9.501598358154297,0.0,real1,0
1659095992988,6.6759376,-1.564864,0.0,-0.7433347702026367,-1.3452253341674805,0.0,0.0,0.0,9.501598358154297,0.0,real1,0
1659095993188,6.6759376,-1.564864,-0.49393224716186523,-1.0066397190093994,-2.2600507736206055,0.0,0.0,0.0,9.501598358154297,0.0,real1,0
1659095993388,6.6759376,-1.564864,0.0,0.36604738235473633,0.9338588714599609,0.0,0.0,0.0,9.501598358154297,0.0,real1,0
1659095993588,6.6759376,-1.564864,-0.9285814762115479,0.9179739952087402,2.1728973388671875,0.0,-0.2919935882091522,0.0,9.501598358154297,0.0,real1,0
1659095993789,6.6759376,-1.564864,0.36307746171951294,-0.6596813201904297,-1.2645573616027832,0.0,0.21624629199504852,0.0,9.501598358154297,0.0,real1,0
1659095993988,6.6759299,-1.5647657,0.0,-0.7240633964538574,-0.9528207778930664,0.0,0.0,0.0,8.92739200592041,0.0,real1,0
1659095994189,6.6759299,-1.5647657,0.0,0.0,0.43118953704833984,0.0,0.0,0.0,8.92739200592041,0.0,real1,0
1659095994388,6.6759299,-1.5647657,0.0,0.0,0.6700277328491211,0.0,0.0,0.0,8.92739200592041,0.0,real1,0
1659095994588,6.6759299,-1.5647657,0.24479058384895325,0.4227151870727539,0.2101907730102539,0.0,0.0,0.0,8.92739200592041,0.0,real1,0
1659095994792,6.6759299,-1.5647657,0.23996610939502716,1.1272621154785156,-0.4398207664489746,0.0,0.0,0.0,8.92739200592041,0.0,real1,0
1659095994989,6.6759299,-1.5647657,0.0,0.0,0.20922088623046875,0.0,0.0,0.0,8.92739200592041,0.0,real1,0
1659095995188,6.6759299,-1.5647657,0.0,0.0,0.0,0.0,0.0,0.0,8.92739200592041,0.0,real1,0
1659095995388,6.6759299,-1.5647657,0.0,0.2964491844177246,0.42461204528808594,0.0,0.0,0.0,8.92739200592041,0.0,real1,0
1659095995588,6.6759299,-1.5647657,0.0,0.0,0.0,0.0,0.0,0.0,8.92739200592041,0.0,real1,0
1659095995788,6.6759299,-1.5647657,0.0,0.0,0.0,0.0,0.0,0.0,8.92739200592041,0.0,real1,0
1659095995988,6.6759299,-1.5647657,0.0,0.0,0.0,0.0,0.0,0.0,8.92739200592041,0.0,real1,0
1659095996188,6.6759299,-1.5647657,0.0,0.0,0.0,0.0,0.0,0.0,8.92739200592041,0.0,real1,0
1659095996388,6.6758469,-1.5647137,0.0,0.28504037857055664,0.0,0.0,0.0,0.0,6.973020553588867,0.0,real1,0
1659095996588,6.6758469,-1.5647137,0.0,0.0,0.0,0.0,0.0,0.0,6.973020553588867,0.0,real1,0
1659095996788,6.6758469,-1.5647137,0.0,0.0,0.0,0.0,0.0,0.0,6.973020553588867,0.0,real1,0
1659095996988,6.6758469,-1.5647137,0.0,0.0,0.0,0.0,0.0,0.0,6.973020553588867,0.0,real1,0
1659095997189,6.6758469,-1.5647137,0.0,0.31583642959594727,0.0,0.0,0.0,0.21807889640331268,6.973020553588867,0.0,real1,0
1659095997389,6.6758469,-1.5647137,0.0,0.4139833450317383,0.0,0.0,0.0,0.0,6.973020553588867,0.0,real1,0
1659095997588,6.6758469,-1.5647137,0.0,0.0,0.36791038513183594,0.0,0.0,0.0,6.973020553588867,0.0,real1,0
1659095997789,6.6758469,-1.5647137,0.0,0.0,0.46480751037597656,0.0,0.0,0.0,6.973020553588867,0.0,real1,0
1659095997995,6.6758469,-1.5647137,0.0,0.0,0.0,0.0,0.0,0.0,6.973020553588867,0.0,real1,0
1659095998188,6.6758469,-1.5647137,0.0,0.0,0.0,0.0,0.0,0.0,6.973020553588867,0.0,real1,0
1659095998388,6.6758469,-1.5647137,0.0,0.0,0.0,0.0,0.0,0.0,6.973020553588867,0.0,real1,0
1659095998589,6.6758469,-1.5647137,0.0,0.0,0.0,0.0,0.0,0.0,6.973020553588867,0.0,real1,0
1659095998789,6.6758469,-1.5647137,0.0,0.0,0.0,0.0,0.0,0.0,6.973020553588867,0.0,real1,0
1659095998989,6.6758469,-1.5647137,0.0,0.0,0.0,0.0,0.0,0.0,6.973020553588867,0.0,real1,0
1659095999189,6.6758469,-1.5647137,0.0,0.0,0.0,0.0,0.0,0.0,6.973020553588867,0.0,real1,0
1659095999396,6.6758469,-1.5647137,0.0,0.2328500747680664,0.0,0.0,0.0,0.0,6.973020553588867,0.0,real1,0
1659095999588,6.675747,-1.5644104,0.0,0.0,0.0,0.0,0.0,0.0,8.448230743408203,0.0,real1,0
1659095999788,6.675747,-1.5644104,0.0,0.0,0.2524852752685547,0.0,0.0,0.0,8.448230743408203,0.0,real1,0
1659095999988,6.675747,-1.5644104,0.0,0.0,0.4473533630371094,0.0,0.0,0.0,8.448230743408203,0.0,real1,0
1659096000188,6.675747,-1.5644104,0.0,0.0,0.0,0.0,0.0,0.0,8.448230743408203,0.0,real1,0
1659096000389,6.675747,-1.5644104,0.0,0.0,0.0,0.0,0.0,0.0,8.448230743408203,0.0,real1,0
1659096000588,6.6756976,-1.564338,0.0,0.0,-0.44904375076293945,0.0,0.0,0.0,8.638068199157715,0.0,real1,0
1659096000788,6.6756976,-1.564338,0.0,0.0,-0.35712766647338867,0.0,0.0,0.0,8.638068199157715,0.0,real1,0
1659096000989,6.6756976,-1.564338,0.0,0.0,0.0,0.0,0.0,0.0,8.638068199157715,0.0,real1,0
1659096001188,6.6756976,-1.564338,0.0,0.3209495544433594,0.0,0.0,0.0,0.0,8.638068199157715,0.0,real1,0
1659096001388,6.6756976,-1.564338,0.0,0.0,0.0,0.0,0.0,0.0,8.638068199157715,0.0,real1,0
1659096001589,6.6756976,-1.564338,0.0,0.0,0.0,0.0,0.0,0.0,8.638068199157715,0.0,real1,0
1659096001788,6.6756347,-1.5642192,0.0,0.0,0.24745655059814453,0.0,0.0,0.0,8.607002258300781,0.0,real1,0
1659096001988,6.6756347,-1.5642192,0.0,0.0,0.0,0.0,0.0,0.0,8.607002258300781,0.0,real1,0
1659096002188,6.6756347,-1.5642192,0.20308774709701538,0.0,0.0,0.0,0.0,0.0,8.607002258300781,0.0,real1,0
1659096002388,6.6756347,-1.5642192,-0.22403863072395325,0.0,0.0,0.0,0.0,0.0,8.607002258300781,0.0,real1,0
1659096002589,6.6756347,-1.5642192,0.0,0.2729630470275879,0.3480501174926758,0.0,0.0,0.0,8.607002258300781,0.0,real1,0
1659096002788,6.6756347,-1.5642192,-0.4068358838558197,0.4189605712890625,0.6239886283874512,0.0,0.0,0.0,8.607002258300781,0.0,real1,0
1659096002989,6.6756347,-1.5642192,0.0,0.0,0.0,0.0,0.0,0.0,8.607002258300781,0.0,real1,0
1659096003189,6.6756347,-1.5642192,0.0,0.6522064208984375,0.7660555839538574,0.0,0.0,0.0,8.607002258300781,0.0,real1,0
1659096003389,6.6756347,-1.5642192,0.0,-0.3069267272949219,-0.3828439712524414,0.0,0.0,0.0,8.607002258300781,0.0,real1,0
1659096003588,6.6756347,-1.5642192,0.0,-0.23752832412719727,0.2703375816345215,0.0,0.0,0.0,8.607002258300781,0.0,real1,0
1659096003789,6.6756347,-1.5642192,0.0,0.0,0.9638676643371582,0.0,0.0,0.0,8.607002258300781,0.0,real1,0
1659096003989,6.6755429,-1.5641319,0.2296680212020874,0.3006877899169922,1.7774405479431152,0.0,0.0,0.0,8.30290699005127,0.0,real1,0
1659096004188,6.6755429,-1.5641319,0.0,-0.4852151870727539,-0.49248790740966797,0.0,0.0,0.0,8.30290699005127,0.0,real1,0
1659096004389,6.6755429,-1.5641319,0.0,-0.3714323043823242,-0.3496856689453125,0.0,0.0,0.0,8.30290699005127,0.0,real1,0
1659096004589,6.6755429,-1.5641319,0.0,0.4116349220275879,0.716435432434082,0.0,0.0,0.0,8.30290699005127,0.0,real1,0
1659096004788,6.6755429,-1.5641319,0.0,0.47629690170288086,0.7154541015625,0.0,0.0,0.0,8.30290699005127,0.0,real1,0
1659096004988,6.6755429,-1.5641319,-0.2181628942489624,0.0,0.0,0.0,0.0,0.0,8.30290699005127,0.0,real1,0
1659096005189,6.6755429,-1.5641319,0.2861379384994507,0.0,0.0,0.0,0.0,0.0,8.30290699005127,0.0,real1,0
1659096005388,6.6755429,-1.5641319,0.0,0.0,0.0,0.0,0.0,0.0,8.30290699005127,0.0,real1,0
1659096005589,6.6755429,-1.5641319,0.0,0.0,0.0,0.0,0.0,0.0,8.30290699005127,0.0,real1,0
1659096005788,6.6755429,-1.5641319,0.0,0.0,0.5105247497558594,0.0,0.0,0.0,8.30290699005127,0.0,real1,0
1659096005998,6.6755429,-1.5641319,0.0,0.0,0.0,0.0,0.0,0.0,8.30290699005127,0.0,real1,0
1659096006189,6.6755429,-1.5641319,0.0,0.0,0.0,0.0,0.0,0.0,8.30290699005127,0.0,real1,0
1659096006389,6.6755429,-1.5641319,0.0,0.0,0.0,0.0,0.0,0.0,8.30290699005127,0.0,real1,0
1659096006588,6.6755429,-1.5641319,0.0,0.0,0.0,0.0,0.0,0.0,8.30290699005127,0.0,real1,0
1659096006789,6.6755429,-1.5641319,0.0,0.0,0.0,0.0,0.0,0.0,8.30290699005127,0.0,real1,0
1659096006988,6.6755429,-1.5641319,0.0,1.5018901824951172,-0.6576790809631348,0.0,0.0,0.0,8.30290699005127,0.0,real1,0
1659096007189,6.6755429,-1.5641319,0.0,-0.2913045883178711,0.3716425895690918,0.0,0.0,0.0,8.30290699005127,0.0,real1,0
1659096007388,6.6755037,-1.5642402,-0.2708010971546173,0.2586350440979004,0.0,0.0,0.0,0.0,5.0070414543151855,0.0,real1,0
1659096007588,6.6755037,-1.5642402,0.0,0.0,0.0,0.0,0.0,0.0,5.0070414543151855,0.0,real1,0
1659096007789,6.6755037,-1.5642402,0.2258300483226776,0.0,0.0,0.0,0.0,0.0,5.0070414543151855,0.0,real1,0
1659096007988,6.6755037,-1.5642402,0.0,0.0,0.0,0.0,0.0,0.0,5.0070414543151855,0.0,real1,0
1659096008188,6.6755037,-1.5642402,0.0,0.0,0.0,0.0,0.0,0.0,5.0070414543151855,0.0,real1,0
1659096008388,6.6755037,-1.5642402,0.0,0.0,0.0,0.0,0.0,0.0,5.0070414543151855,0.0,real1,0
1659096008589,6.6755037,-1.5642402,0.0,0.0,0.2185201644897461,0.0,0.0,0.0,5.0070414543151855,0.0,real1,0
1659096008788,6.6755037,-1.5642402,0.0,0.0,0.0,0.0,0.0,0.0,5.0070414543151855,0.0,real1,0
1659096008989,6.6755037,-1.5642402,0.0,0.0,0.0,0.0,0.0,0.0,5.0070414543151855,0.0,real1,0
1659096009188,6.6755037,-1.5642402,0.0,0.0,0.0,0.0,0.0,0.0,5.0070414543151855,0.0,real1,0
1659096009388,6.6755037,-1.5642402,0.0,0.0,0.0,0.0,0.0,0.0,5.0070414543151855,0.0,real1,0
1659096009589,6.6755037,-1.5642402,0.0,0.0,0.0,0.0,0.0,0.0,5.0070414543151855,0.0,real1,0
1659096009789,6.6755037,-1.5642402,0.0,0.0,0.0,0.0,0.0,0.0,5.0070414543151855,0.0,real1,0
1659096009989,6.6755037,-1.5642402,0.0,0.0,0.0,0.0,0.0,0.0,5.0070414543151855,0.0,real1,0
1659096010188,6.6755037,-1.5642402,0.0,0.0,0.0,0.0,0.0,0.0,5.0070414543151855,0.0,real1,0
1659096010388,6.6755037,-1.5642402,0.0,0.0,0.0,0.0,0.0,0.0,5.0070414543151855,0.0,real1,0
1659096010589,6.6754486,-1.564166,0.0,0.0,0.0,0.0,0.0,0.0,4.2539448738098145,0.0,real1,0
1659096010788,6.6754486,-1.564166,0.0,0.0,0.0,0.0,0.0,0.0,4.2539448738098145,0.0,real1,0
1659096010988,6.6754486,-1.564166,0.0,0.0,0.0,0.0,0.0,0.0,4.2539448738098145,0.0,real1,0
1659096011188,6.6754486,-1.564166,0.0,0.0,0.0,0.0,0.0,0.0,4.2539448738098145,0.0,real1,0
1659096011389,6.6754486,-1.564166,0.0,0.0,0.0,0.0,0.0,0.0,4.2539448738098145,0.0,real1,0
1659096011588,6.6754486,-1.564166,0.0,0.0,0.0,0.0,0.0,0.0,4.2539448738098145,0.0,real1,0
1659096011789,6.6754486,-1.564166,0.0,0.0,0.0,0.0,0.0,0.0,4.2539448738098145,0.0,real1,0
1659096012049,6.6754486,-1.564166,0.0,0.0,0.0,0.0,0.0,0.0,4.2539448738098145,0.0,real1,0
1659096012297,6.6754486,-1.564166,0.0,0.0,0.0,0.0,0.0,0.0,4.2539448738098145,0.0,real1,0
1659096012446,6.6754486,-1.564166,0.0,0.0,0.0,0.0,0.0,0.0,4.2539448738098145,0.0,real1,0
1659096012588,6.6754486,-1.564166,0.0,0.0,0.0,0.0,0.0,0.0,4.2539448738098145,0.0,real1,0
1659096012789,6.6754486,-1.564166,0.0,0.0,0.0,0.0,0.0,0.0,4.2539448738098145,0.0,real1,0
1659096012988,6.6754486,-1.564166,0.0,0.0,0.0,0.0,0.0,0.0,4.2539448738098145,0.0,real1,0
1659096013189,6.6754486,-1.564166,0.0,0.0,0.0,0.0,0.0,0.0,4.2539448738098145,0.0,real1,0
1659096013388,6.6754486,-1.564166,0.0,0.0,0.0,0.0,0.0,0.0,4.2539448738098145,0.0,real1,0
1659096013589,6.6754486,-1.564166,0.0,0.0,0.0,0.0,0.0,0.0,4.2539448738098145,0.0,real1,0
1659096013788,6.6754486,-1.564166,0.0,0.0,0.0,0.0,0.0,0.0,4.2539448738098145,0.0,real1,0
1659096013990,6.6754486,-1.564166,0.0,0.0,0.0,0.0,0.0,0.0,4.2539448738098145,0.0,real1,0
1659096014188,6.6754342,-1.5641571,0.0,0.0,0.0,0.0,0.0,0.0,3.2401556968688965,0.0,real1,0
1659096014389,6.6754342,-1.5641571,0.0,0.0,0.0,0.0,0.0,0.0,3.2401556968688965,0.0,real1,0
1659096014589,6.6754342,-1.5641571,0.0,0.0,0.0,0.0,0.0,0.0,3.2401556968688965,0.0,real1,0
1659096014788,6.6754342,-1.5641571,0.0,0.0,0.0,0.0,0.0,0.0,3.2401556968688965,0.0,real1,0
1659096014988,6.6754342,-1.5641571,0.0,0.0,0.0,0.0,0.0,0.0,3.2401556968688965,0.0,real1,0
1659096015188,6.6754342,-1.5641571,0.0,0.0,0.0,0.0,0.0,0.0,3.2401556968688965,0.0,real1,0
1659096015389,6.6754342,-1.5641571,0.0,0.0,0.0,0.0,0.0,0.0,3.2401556968688965,0.0,real1,0
1659096015589,6.6754342,-1.5641571,0.0,0.0,0.0,0.0,0.0,0.0,3.2401556968688965,0.0,real1,0
1659096015788,6.6754342,-1.5641571,0.0,0.0,0.0,0.0,0.0,0.0,3.2401556968688965,0.0,real1,0
1659096015989,6.6754342,-1.5641571,0.0,0.0,0.0,0.0,0.0,0.0,3.2401556968688965,0.0,real1,0
1659096016188,6.6754342,-1.5641571,0.0,0.0,0.0,0.0,0.0,0.0,3.2401556968688965,0.0,real1,0
1659096016389,6.6754342,-1.5641571,0.0,0.0,0.0,0.0,0.0,0.0,3.2401556968688965,0.0,real1,0
1659096016588,6.6754342,-1.5641571,0.0,0.0,0.0,0.0,0.0,0.0,3.2401556968688965,0.0,real1,0
1659096016789,6.6754071,-1.5641056,0.0,0.0,0.21671390533447266,0.0,0.0,0.0,2.946561813354492,0.0,real1,0
1659096016988,6.6754071,-1.5641056,0.0,0.0,0.0,0.0,0.0,0.0,2.946561813354492,0.0,real1,0
1659096017189,6.6754071,-1.5641056,0.0,0.0,0.0,0.0,0.0,0.0,2.946561813354492,0.0,real1,0
1659096017388,6.6754198,-1.5641205,0.0,0.0,0.0,0.0,0.0,0.0,2.7298288345336914,0.0,real1,0
1659096017596,6.6754198,-1.5641205,0.0,0.0,0.0,0.0,0.0,0.0,2.7298288345336914,0.0,real1,0
1659096017792,6.6754198,-1.5641205,0.0,0.0,0.2524561882019043,0.0,0.0,0.0,2.7298288345336914,0.0,real1,0
1659096017993,6.6754198,-1.5641205,0.0,0.0,0.0,0.0,0.0,0.0,2.7298288345336914,0.0,real1,0
1659096018188,6.6754198,-1.5641205,0.0,0.0,0.0,0.0,0.0,0.0,2.7298288345336914,0.0,real1,0
1659096018389,6.6754198,-1.5641205,0.0,0.0,-0.24825096130371094,0.0,0.0,0.0,2.7298288345336914,0.0,real1,0
1659096018588,6.6754985,-1.5642647,0.0,0.0,0.0,0.0,0.0,0.0,0.07113249599933624,0.0,real1,0
1659096018788,6.6754985,-1.5642647,0.0,0.0,0.0,0.0,0.0,0.0,0.07113249599933624,0.0,real1,0
1659096018989,6.6754985,-1.5642647,0.0,0.0,0.0,0.0,0.0,0.0,0.07113249599933624,0.0,real1,0
1659096019188,6.6754985,-1.5642647,0.0,0.0,0.0,0.0,0.0,0.0,0.07113249599933624,0.0,real1,0
1659096019388,6.6754985,-1.5642647,0.0,0.0,0.0,0.0,0.0,0.0,0.07113249599933624,0.0,real1,0
1659096019589,6.6754985,-1.5642647,0.0,0.0,0.0,0.0,0.0,0.0,0.07113249599933624,0.0,real1,0
1659096019788,6.6754985,-1.5642647,0.0,0.0,0.0,0.0,0.0,0.0,0.07113249599933624,0.0,real1,0
1659096019988,6.6754985,-1.5642647,0.0,0.0,0.24717187881469727,0.0,0.0,0.0,0.07113249599933624,0.0,real1,0
1659096020190,6.6754985,-1.5642647,0.0,0.0,0.0,0.0,0.0,0.0,0.07113249599933624,0.0,real1,0
1659096020388,6.6754985,-1.5642647,0.0,0.0,0.0,0.0,0.0,0.0,0.07113249599933624,0.0,real1,0
1659096020623,6.6754985,-1.5642647,0.0,0.0,0.0,0.0,0.0,0.0,0.07113249599933624,0.0,real1,0
1659096020797,6.6754985,-1.5642647,0.0,0.0,0.0,0.0,0.0,0.0,0.07113249599933624,0.0,real1,0
1659096021012,6.6754985,-1.5642647,0.0,0.0,0.0,0.0,0.0,0.0,0.07113249599933624,0.0,real1,0
1659096021215,6.6754985,-1.5642647,0.0,0.0,0.0,0.0,0.0,0.0,0.07113249599933624,0.0,real1,0
1659096021389,6.6754985,-1.5642647,0.0,0.0,0.2183856964111328,0.0,0.0,0.0,0.07113249599933624,0.0,real1,0
1659096021618,6.6754985,-1.5642647,0.0,0.0,0.0,0.0,0.0,0.0,0.07113249599933624,0.0,real1,0
1659096021788,6.6754985,-1.5642647,0.0,0.0,0.0,0.0,0.0,0.0,0.07113249599933624,0.0,real1,0
1659096022040,6.6754985,-1.5642647,0.0,0.0,0.0,0.0,0.0,0.0,0.07113249599933624,0.0,real1,0
1659096022210,6.6754985,-1.5642647,0.0,0.0,0.0,0.0,0.0,0.0,0.07113249599933624,0.0,real1,0
1659096022419,6.6754971,-1.564264,0.0,0.0,0.0,0.0,0.0,0.0,0.06810101866722107,0.0,real1,0
1659096022588,6.6754971,-1.564264,0.0,0.0,0.0,0.0,0.0,0.0,0.06810101866722107,0.0,real1,0
1659096022869,6.6754971,-1.564264,0.0,0.0,0.0,0.0,0.0,0.0,0.06810101866722107,0.0,real1,0
1659096022988,6.6754971,-1.564264,0.0,0.0,0.0,0.0,0.0,0.0,0.06810101866722107,0.0,real1,0
1659096023211,6.6754971,-1.564264,0.0,0.0,0.0,0.0,0.0,0.0,0.06810101866722107,0.0,real1,0
1659096023461,6.6754971,-1.564264,0.0,0.0,0.0,0.0,0.0,0.0,0.06810101866722107,0.0,real1,0
1659096023766,6.6754971,-1.564264,0.0,0.0,0.0,0.0,0.0,0.0,0.06810101866722107,0.0,real1,0
1659096024050,6.6754971,-1.564264,0.0,0.0,0.0,0.0,0.0,0.0,0.06810101866722107,0.0,real1,0
1659096024312,6.6754971,-1.564264,0.0,0.0,0.0,0.0,0.0,0.0,0.06810101866722107,0.0,real1,0
1659096024502,6.6754971,-1.564264,0.0,0.0,0.0,0.0,0.0,0.0,0.06810101866722107,0.0,real1,0
1659096024617,6.6754971,-1.564264,0.0,0.0,0.0,0.0,0.0,0.0,0.06810101866722107,0.0,real1,0
1659096024788,6.6754971,-1.564264,0.0,0.0,0.0,0.0,0.0,0.0,0.06810101866722107,0.0,real1,0
1659096024988,6.6754971,-1.564264,0.0,0.0,0.22808218002319336,0.0,0.0,0.0,0.06810101866722107,0.0,real1,0
1659096025188,6.6754971,-1.564264,0.0,0.0,0.0,0.0,0.0,0.0,0.06810101866722107,0.0,real1,0
1659096025388,6.6754971,-1.564264,0.0,0.0,0.0,0.0,0.0,0.0,0.06810101866722107,0.0,real1,0
1659096025588,6.6754971,-1.564264,0.0,0.0,0.31501197814941406,0.0,0.0,0.0,0.06810101866722107,0.0,real1,0
1659096025788,6.6754971,-1.564264,0.0,0.0,0.3247861862182617,0.0,0.0,0.0,0.06810101866722107,0.0,real1,0
1659096025988,6.6754971,-1.564264,0.0,0.0,0.0,0.0,0.0,0.0,0.06810101866722107,0.0,real1,0
1659096026188,6.6754938,-1.5642696,0.0,0.0,-0.20471811294555664,0.0,0.0,0.0,0.10974149405956268,0.0,real1,0
1659096026389,6.6754938,-1.5642696,0.0,0.0,0.0,0.0,0.0,0.0,0.10974149405956268,0.0,real1,0
1659096026599,6.6754938,-1.5642696,-0.23159822821617126,0.3103814125061035,0.4989771842956543,0.0,0.0,0.0,0.10974149405956268,0.0,real1,0
1659096026789,6.6754938,-1.5642696,0.22697657346725464,0.4208402633666992,0.7880935668945312,0.0,0.0,0.0,0.10974149405956268,0.0,real1,0
1659096026988,6.6754938,-1.5642696,0.0,0.3954939842224121,0.5238766670227051,0.0,0.0,0.0,0.10974149405956268,0.0,real1,0
1659096027189,6.6754938,-1.5642696,-0.26171135902404785,0.0,0.0,0.0,0.0,0.0,0.10974149405956268,0.0,real1,0
1659096027389,6.6754938,-1.5642696,0.0,0.0,0.699549674987793,0.0,0.0,0.0,0.10974149405956268,0.0,real1,0
1659096027588,6.6754938,-1.5642696,0.3106960356235504,-0.4428443908691406,-0.3011326789855957,0.0,0.0,0.0,0.10974149405956268,0.0,real1,0
1659096027788,6.6754938,-1.5642696,-0.3991520404815674,-0.7857003211975098,0.0,0.0,0.0,0.0,0.10974149405956268,0.0,real1,0
1659096027988,6.6754938,-1.5642696,0.0,-0.5506529808044434,-0.4775681495666504,0.0,0.0,0.0,0.10974149405956268,0.0,real1,0
1659096028188,6.6754938,-1.5642696,0.0,-0.6491026878356934,-0.7064785957336426,0.0,0.0,0.0,0.10974149405956268,0.0,real1,0
1659096028388,6.6754938,-1.5642696,0.0,-0.23170137405395508,-0.28730249404907227,0.0,0.0,0.0,0.10974149405956268,0.0,real1,0
1659096028588,6.6754938,-1.5642696,0.0,0.0,0.36977195739746094,0.0,0.0,0.0,0.10974149405956268,0.0,real1,0
1659096028788,6.6754938,-1.5642696,0.0,0.0,0.0,0.0,0.0,0.0,0.10974149405956268,0.0,real1,0
1659096028997,6.6754938,-1.5642696,0.0,0.2085132598876953,0.0,0.0,0.0,0.0,0.10974149405956268,0.0,real1,0
1659096029190,6.6754938,-1.5642696,0.0,0.0,0.0,0.0,0.0,0.0,0.10974149405956268,0.0,real1,0
1659096029436,6.6754938,-1.5642696,0.0,0.0,0.0,0.0,0.0,0.0,0.10974149405956268,0.0,real1,0
1659096029903,6.6754938,-1.5642696,0.0,0.5550775527954102,0.626276969909668,0.0,0.0,0.0,0.10974149405956268,0.0,real1,0
1659096030351,6.6755196,-1.5642925,0.0,0.2000269889831543,0.3097953796386719,0.0,0.0,0.0,0.34831005334854126,0.0,real1,0
1659096030585,6.6755196,-1.5642925,0.0,-0.6704649925231934,-0.35675764083862305,0.0,0.0,0.0,0.34831005334854126,0.0,real1,0
1659096030609,6.6755196,-1.5642925,0.0,-0.6704649925231934,-0.35675764083862305,0.0,0.0,0.0,0.34831005334854126,0.0,real1,0
1659096030798,6.6755184,-1.5642876,0.0,0.0,0.9041004180908203,0.0,0.0,0.0,0.2649731934070587,0.0,real1,0
1659096030990,6.6755184,-1.5642876,0.2730807363986969,0.0,0.7854495048522949,0.0,0.0,0.0,0.2649731934070587,0.0,real1,0
1659096031194,6.6755184,-1.5642876,0.0,0.0,0.4292745590209961,0.0,0.0,0.0,0.2649731934070587,0.0,real1,0
1659096031394,6.6755209,-1.5643031,0.0,0.0,0.0,0.0,0.0,0.0,0.41249868273735046,0.0,real1,0
1659096031593,6.6755209,-1.5643031,0.0,-0.21082162857055664,0.0,0.0,0.0,0.0,0.41249868273735046,0.0,real1,0
1659096031791,6.6755209,-1.5643031,0.27810367941856384,0.0,0.23934650421142578,0.0,0.0,0.0,0.41249868273735046,0.0,real1,0
1659096031989,6.6755209,-1.5643031,-0.30476292967796326,0.0,0.0,0.0,0.0,0.0,0.41249868273735046,0.0,real1,0
1659096032192,6.6755426,-1.5643146,0.24108825623989105,0.0,0.0,0.0,0.0,0.0,0.6817430257797241,0.0,real1,0
1659096032389,6.6755426,-1.5643146,0.0,0.0,0.42154979705810547,0.0,0.0,0.0,0.6817430257797241,0.0,real1,0
1659096032590,6.6755426,-1.5643146,0.0,0.0,0.24311065673828125,0.0,0.0,0.0,0.6817430257797241,0.0,real1,0
1659096032790,6.6755426,-1.5643146,0.0,0.0,0.0,0.0,0.0,0.0,0.6817430257797241,0.0,real1,0
1659096032989,6.6755426,-1.5643146,0.0,0.0,0.0,0.0,0.0,0.0,0.6817430257797241,0.0,real1,0
1659096033192,6.6755426,-1.5643146,0.0,0.0,0.3090181350708008,0.0,0.0,0.0,0.6817430257797241,0.0,real1,0
1659096033391,6.6755426,-1.5643146,0.0,0.0,0.0,0.0,0.0,0.0,0.6817430257797241,0.0,real1,0
1659096033595,6.6755472,-1.5643296,0.0,0.0,0.0,0.0,0.0,0.0,0.7495378851890564,0.0,real1,0
1659096033790,6.6755472,-1.5643296,0.0,0.0,0.0,0.0,0.0,0.0,0.7495378851890564,0.0,real1,0
1659096033991,6.6755472,-1.5643296,0.0,0.0,0.0,0.0,0.0,0.0,0.7495378851890564,0.0,real1,0
1659096034193,6.6755472,-1.5643296,0.0,0.0,0.0,0.0,0.0,0.0,0.7495378851890564,0.0,real1,0
1659096034392,6.6755472,-1.5643296,0.0,0.5569167137145996,-0.21820354461669922,0.0,0.0,0.0,0.7495378851890564,0.0,real1,0
1659096034590,6.6755472,-1.5643296,0.0,0.0,0.3631157875061035,0.0,0.0,0.0,0.7495378851890564,0.0,real1,0
1659096034792,6.6755472,-1.5643296,0.0,0.0,0.0,0.0,0.0,0.0,0.7495378851890564,0.0,real1,0
1659096034992,6.6755472,-1.5643296,0.0,0.0,0.0,0.0,0.0,0.0,0.7495378851890564,0.0,real1,0
1659096035192,6.6755472,-1.5643296,0.0,0.0,0.0,0.0,0.0,0.0,0.7495378851890564,0.0,real1,0
1659096035395,6.6755472,-1.5643296,0.0,0.0,0.0,0.0,0.0,0.0,0.7495378851890564,0.0,real1,0
1659096035595,6.6755472,-1.5643296,0.0,0.0,0.0,0.0,0.0,0.0,0.7495378851890564,0.0,real1,0
1659096035794,6.6755472,-1.5643296,0.0,0.0,0.0,0.0,0.0,0.0,0.7495378851890564,0.0,real1,0
1659096035990,6.6755472,-1.5643296,0.0,0.0,0.0,0.0,0.0,0.0,0.7495378851890564,0.0,real1,0
1659096036189,6.6755561,-1.5643541,0.0,0.0,0.0,0.0,0.0,0.0,0.6842041015625,0.0,real1,0
1659096036389,6.6755561,-1.5643541,0.0,0.0,0.0,0.0,0.0,0.0,0.6842041015625,0.0,real1,0
1659096036589,6.6755561,-1.5643541,0.0,0.0,0.0,0.0,0.0,0.0,0.6842041015625,0.0,real1,0
1659096036788,6.6755561,-1.5643541,0.0,0.0,0.0,0.0,0.0,0.0,0.6842041015625,0.0,real1,0
1659096036989,6.6755561,-1.5643541,0.0,0.0,0.0,0.0,0.0,0.0,0.6842041015625,0.0,real1,0
1659096037188,6.6755561,-1.5643541,0.0,0.0,0.2350001335144043,0.0,0.0,0.0,0.6842041015625,0.0,real1,0
1659096037388,6.6755561,-1.5643541,0.0,0.0,0.0,0.0,0.0,0.0,0.6842041015625,0.0,real1,0
1659096037588,6.6755561,-1.5643541,0.0,0.0,0.0,0.0,0.0,0.0,0.6842041015625,0.0,real1,0
1659096037789,6.6755561,-1.5643541,0.0,0.0,0.0,0.0,0.0,0.0,0.6842041015625,0.0,real1,0
1659096037988,6.6755561,-1.5643541,0.0,0.0,0.0,0.0,0.0,0.0,0.6842041015625,0.0,real1,0
1659096038189,6.6755561,-1.5643541,0.0,0.0,0.0,0.0,0.0,0.0,0.6842041015625,0.0,real1,0
1659096038388,6.6755561,-1.5643541,0.0,0.0,0.0,0.0,0.0,0.0,0.6842041015625,0.0,real1,0
1659096038588,6.6755561,-1.5643541,0.0,0.0,0.21435785293579102,0.0,0.0,0.0,0.6842041015625,0.0,real1,0
1659096038788,6.6755561,-1.5643541,0.0,0.0,0.0,0.0,0.0,0.0,0.6842041015625,0.0,real1,0
1659096038989,6.6755561,-1.5643541,0.0,0.0,0.0,0.0,0.0,0.0,0.6842041015625,0.0,real1,0
1659096039189,6.6755561,-1.5643541,0.0,0.0,0.22577762603759766,0.0,0.0,0.0,0.6842041015625,0.0,real1,0
1659096039388,6.6755561,-1.5643541,0.0,0.0,0.0,0.0,0.0,0.0,0.6842041015625,0.0,real1,0
1659096039589,6.6755561,-1.5643541,0.0,0.0,0.0,0.0,0.0,0.0,0.6842041015625,0.0,real1,0
1659096039789,6.6755987,-1.5643593,0.0,0.0,0.0,0.0,0.0,0.0,0.8142021894454956,0.0,real1,0
1659096039988,6.6755987,-1.5643593,0.0,0.0,0.0,0.0,0.0,0.0,0.8142021894454956,0.0,real1,0
1659096040188,6.6755987,-1.5643593,0.0,0.0,0.0,0.0,0.0,0.0,0.8142021894454956,0.0,real1,0
1659096040388,6.6755987,-1.5643593,0.0,0.0,0.0,0.0,0.0,0.0,0.8142021894454956,0.0,real1,0
1659096040588,6.6755987,-1.5643593,0.0,0.0,0.0,0.0,0.0,0.0,0.8142021894454956,0.0,real1,0
1659096040788,6.6755987,-1.5643593,0.0,0.0,0.0,0.0,0.0,0.0,0.8142021894454956,0.0,real1,0
1659096040988,6.6755987,-1.5643593,0.0,0.0,0.0,0.0,0.0,0.0,0.8142021894454956,0.0,real1,0
1659096041196,6.6755987,-1.5643593,0.0,0.0,0.0,0.0,0.0,0.0,0.8142021894454956,0.0,real1,0
1659096041396,6.6755987,-1.5643593,0.0,0.0,0.0,0.0,0.0,0.0,0.8142021894454956,0.0,real1,0
1659096041599,6.6755987,-1.5643593,0.0,0.0,0.0,0.0,0.0,0.0,0.8142021894454956,0.0,real1,0
1659096041792,6.6755987,-1.5643593,0.0,0.0,0.24187755584716797,0.0,0.0,0.0,0.8142021894454956,0.0,real1,0
1659096041993,6.6755987,-1.5643593,0.0,0.0,0.0,0.0,0.0,0.0,0.8142021894454956,0.0,real1,0
1659096042188,6.6755987,-1.5643593,0.0,0.0,0.0,0.0,0.0,0.0,0.8142021894454956,0.0,real1,0
1659096042394,6.6755987,-1.5643593,0.0,0.0,0.0,0.0,0.0,0.0,0.8142021894454956,0.0,real1,0
1659096042595,6.6755987,-1.5643593,0.0,0.0,0.0,0.0,0.0,0.0,0.8142021894454956,0.0,real1,0
1659096042794,6.6755987,-1.5643593,0.0,0.0,0.0,0.0,0.0,0.0,0.8142021894454956,0.0,real1,0
1659096042992,6.6755987,-1.5643593,0.0,0.0,0.0,0.0,0.0,0.0,0.8142021894454956,0.0,real1,0
1659096043197,6.6755987,-1.5643593,0.0,0.0,0.0,0.0,0.0,0.0,0.8142021894454956,0.0,real1,0
1659096043395,6.6755637,-1.5643134,0.0,0.0,0.0,0.0,0.0,0.0,0.19632717967033386,0.0,real1,0
1659096043593,6.6755637,-1.5643134,0.0,0.0,0.0,0.0,0.0,0.0,0.19632717967033386,0.0,real1,0
1659096043792,6.6755637,-1.5643134,0.0,0.0,0.0,0.0,0.0,0.0,0.19632717967033386,0.0,real1,0
1659096043999,6.6755637,-1.5643134,0.0,0.0,0.0,0.0,0.0,0.0,0.19632717967033386,0.0,real1,0
1659096044194,6.6755637,-1.5643134,0.0,0.0,0.0,0.0,0.0,0.0,0.19632717967033386,0.0,real1,0
1659096044394,6.6755637,-1.5643134,0.0,0.0,0.0,0.0,0.0,0.0,0.19632717967033386,0.0,real1,0
1659096044595,6.6755637,-1.5643134,0.0,0.0,0.0,0.0,0.0,0.0,0.19632717967033386,0.0,real1,0
1659096044803,6.6755637,-1.5643134,0.0,0.0,0.0,0.0,0.0,0.0,0.19632717967033386,0.0,real1,0
1659096044992,6.6755637,-1.5643134,0.0,0.0,0.0,0.0,0.0,0.0,0.19632717967033386,0.0,real1,0
1659096045195,6.6755637,-1.5643134,0.0,0.0,0.0,0.0,0.0,0.0,0.19632717967033386,0.0,real1,0
1659096045395,6.6755637,-1.5643134,0.0,0.0,0.0,0.0,0.0,0.0,0.19632717967033386,0.0,real1,0
1659096045602,6.6755637,-1.5643134,0.0,0.0,0.0,0.0,0.0,0.0,0.19632717967033386,0.0,real1,0
1659096045794,6.6755637,-1.5643134,0.0,0.0,0.0,0.0,0.0,0.0,0.19632717967033386,0.0,real1,0
1659096045995,6.6755637,-1.5643134,0.0,0.0,0.0,0.0,0.0,0.0,0.19632717967033386,0.0,real1,0
1659096046195,6.6755637,-1.5643134,0.0,0.0,0.0,0.0,0.0,0.0,0.19632717967033386,0.0,real1,0
1659096046401,6.6755637,-1.5643134,0.0,0.0,0.0,0.0,0.0,0.0,0.19632717967033386,0.0,real1,0
1659096046596,6.6755637,-1.5643134,0.0,0.0,0.0,0.0,0.0,0.0,0.19632717967033386,0.0,real1,0
1659096046788,6.6755637,-1.5643134,0.0,0.0,0.0,0.0,0.0,0.0,0.19632717967033386,0.0,real1,0
1659096046989,6.6756248,-1.564299,0.0,0.0,0.0,0.0,0.0,0.0,0.7678343057632446,0.0,real1,0
1659096047188,6.6756248,-1.564299,0.0,0.0,0.0,0.0,0.0,0.0,0.7678343057632446,0.0,real1,0
1659096047389,6.6756248,-1.564299,0.0,0.0,0.0,0.0,0.0,0.0,0.7678343057632446,0.0,real1,0
1659096047588,6.6756248,-1.564299,0.0,0.0,0.0,0.0,0.0,0.0,0.7678343057632446,0.0,real1,0
1659096047789,6.6756248,-1.564299,0.0,0.0,0.22572565078735352,0.0,0.0,0.0,0.7678343057632446,0.0,real1,0
1659096047989,6.6756248,-1.564299,0.0,0.0,0.0,0.0,0.0,0.0,0.7678343057632446,0.0,real1,0
1659096048189,6.6756248,-1.564299,0.0,0.0,0.0,0.0,0.0,0.0,0.7678343057632446,0.0,real1,0
1659096048391,6.6756248,-1.564299,0.0,0.0,0.0,0.0,0.0,0.0,0.7678343057632446,0.0,real1,0
1659096048588,6.6756248,-1.564299,0.0,0.0,0.0,0.0,0.0,0.0,0.7678343057632446,0.0,real1,0
1659096048789,6.6756248,-1.564299,0.0,0.0,0.0,0.0,0.0,0.0,0.7678343057632446,0.0,real1,0
1659096048988,6.6756248,-1.564299,0.0,0.0,0.0,0.0,0.0,0.0,0.7678343057632446,0.0,real1,0
1659096049188,6.6756248,-1.564299,0.0,0.0,0.0,0.0,0.0,0.0,0.7678343057632446,0.0,real1,0
1659096049388,6.675611,-1.5642916,0.0,0.0,0.0,0.0,0.0,0.0,0.5471160411834717,0.0,real1,0
1659096049589,6.675611,-1.5642916,0.0,0.0,0.22238969802856445,0.0,0.0,0.0,0.5471160411834717,0.0,real1,0
1659096049788,6.675611,-1.5642916,0.0,0.0,0.0,0.0,0.0,0.0,0.5471160411834717,0.0,real1,0
1659096049988,6.675611,-1.5642916,0.0,0.0,0.0,0.0,0.0,0.0,0.5471160411834717,0.0,real1,0
1659096050190,6.675611,-1.5642916,0.0,0.0,0.20865440368652344,0.0,0.0,0.0,0.5471160411834717,0.0,real1,0
1659096050388,6.675611,-1.5642916,0.0,0.0,0.0,0.0,0.0,0.0,0.5471160411834717,0.0,real1,0
1659096050589,6.675611,-1.5642916,0.0,0.0,0.0,0.0,0.0,0.0,0.5471160411834717,0.0,real1,0
1659096050788,6.675611,-1.5642916,0.0,0.0,0.0,0.0,0.0,0.0,0.5471160411834717,0.0,real1,0
1659096050989,6.675611,-1.5642916,0.0,0.0,0.0,0.0,0.0,0.0,0.5471160411834717,0.0,real1,0
1659096051188,6.6755942,-1.564279,0.0,0.0,0.0,0.0,0.0,0.0,0.383965402841568,0.0,real1,0
1659096051389,6.6755942,-1.564279,0.0,0.0,0.0,0.0,0.0,0.0,0.383965402841568,0.0,real1,0
1659096051588,6.6755942,-1.564279,0.0,0.0,0.0,0.0,0.0,0.0,0.383965402841568,0.0,real1,0
1659096051788,6.6755942,-1.564279,0.0,0.0,0.0,0.0,0.0,0.0,0.383965402841568,0.0,real1,0
1659096051989,6.6755942,-1.564279,0.0,0.0,0.0,0.0,0.0,0.0,0.383965402841568,0.0,real1,0
1659096052188,6.6755942,-1.564279,0.0,0.0,0.0,0.0,0.0,0.0,0.383965402841568,0.0,real1,0
1659096052388,6.6755942,-1.564279,0.0,0.0,0.0,0.0,0.0,0.0,0.383965402841568,0.0,real1,0
1659096052589,6.6755942,-1.564279,0.0,0.0,0.0,0.0,0.0,0.0,0.383965402841568,0.0,real1,0
1659096052788,6.6756359,-1.5642814,0.0,0.0,0.0,0.0,0.0,0.0,0.6821528673171997,0.0,real1,0
1659096052988,6.6756359,-1.5642814,0.0,0.0,0.0,0.0,0.0,0.0,0.6821528673171997,0.0,real1,0
1659096053188,6.6756359,-1.5642814,0.0,0.0,0.0,0.0,0.0,0.0,0.6821528673171997,0.0,real1,0
1659096053388,6.6756359,-1.5642814,0.0,0.0,0.0,0.0,0.0,0.0,0.6821528673171997,0.0,real1,0
1659096053588,6.6756359,-1.5642814,0.0,0.0,0.0,0.0,0.0,0.0,0.6821528673171997,0.0,real1,0
1659096053788,6.6756359,-1.5642814,0.0,0.0,0.0,0.0,0.0,0.0,0.6821528673171997,0.0,real1,0
1659096053988,6.6756359,-1.5642814,0.0,0.0,0.0,0.0,0.0,0.0,0.6821528673171997,0.0,real1,0
1659096054189,6.6756359,-1.5642814,0.0,0.0,0.0,0.0,0.0,0.0,0.6821528673171997,0.0,real1,0
1659096054388,6.6756359,-1.5642814,0.0,0.0,0.21374082565307617,0.0,0.0,0.0,0.6821528673171997,0.0,real1,0
1659096054589,6.6756359,-1.5642814,0.0,0.0,0.0,0.0,0.0,0.0,0.6821528673171997,0.0,real1,0
1659096054789,6.6756359,-1.5642814,0.0,0.21735858917236328,0.0,0.0,0.0,0.0,0.6821528673171997,0.0,real1,0
1659096054988,6.6756359,-1.5642814,0.0,0.0,0.0,0.0,0.0,0.0,0.6821528673171997,0.0,real1,0
1659096055188,6.6756359,-1.5642814,0.0,0.0,0.0,0.0,0.0,0.0,0.6821528673171997,0.0,real1,0
1659096055388,6.6755867,-1.5642766,0.0,0.0,-0.21909856796264648,0.0,0.0,0.0,0.20798172056674957,0.0,real1,0
1659096055588,6.6755867,-1.5642766,0.0,0.34727907180786133,0.0,0.0,0.0,0.0,0.20798172056674957,0.0,real1,0
1659096055788,6.6755867,-1.5642766,0.0,0.2684969902038574,0.0,0.0,0.0,0.0,0.20798172056674957,0.0,real1,0
1659096055989,6.6755867,-1.5642766,0.0,0.0,0.0,0.0,0.0,0.0,0.20798172056674957,0.0,real1,0
1659096056189,6.6755867,-1.5642766,0.0,0.0,0.29226016998291016,0.0,0.0,0.0,0.20798172056674957,0.0,real1,0
1659096056388,6.6755867,-1.5642766,0.0,0.0,0.6483187675476074,0.0,0.0,0.0,0.20798172056674957,0.0,real1,0
1659096056589,6.6755867,-1.5642766,0.0,-0.25928163528442383,0.2109971046447754,0.0,0.0,0.0,0.20798172056674957,0.0,real1,0
1659096056788,6.6755867,-1.5642766,0.0,0.0,0.30772972106933594,0.0,0.0,0.0,0.20798172056674957,0.0,real1,0
1659096056988,6.6755867,-1.5642766,0.0,0.0,0.5668201446533203,0.0,0.0,0.0,0.20798172056674957,0.0,real1,0
1659096057189,6.6755867,-1.5642766,0.0,0.0,0.0,0.0,0.0,0.0,0.20798172056674957,0.0,real1,0
1659096057388,6.6755867,-1.5642766,0.0,0.0,0.0,0.0,0.0,0.0,0.20798172056674957,0.0,real1,0
1659096057588,6.6755668,-1.5642738,0.0,0.0,0.27440738677978516,0.0,0.0,0.0,0.20664870738983154,0.0,real1,0
1659096057788,6.6755668,-1.5642738,0.0,0.0,0.0,0.0,0.0,0.0,0.20664870738983154,0.0,real1,0
1659096058000,6.6755668,-1.5642738,0.0,0.0,0.0,0.0,0.0,0.0,0.20664870738983154,0.0,real1,0
1659096058191,6.6755668,-1.5642738,0.0,0.0,0.0,0.0,0.0,0.0,0.20664870738983154,0.0,real1,0
1659096058388,6.6755668,-1.5642738,0.0,0.0,0.0,0.0,0.0,0.0,0.20664870738983154,0.0,real1,0
1659096058588,6.6755668,-1.5642738,0.0,0.47695446014404297,0.0,0.0,0.0,0.0,0.20664870738983154,0.0,real1,0
1659096058788,6.6755668,-1.5642738,0.0,0.24312496185302734,0.3340277671813965,0.0,0.0,0.0,0.20664870738983154,0.0,real1,0
1659096058989,6.6755453,-1.5642718,0.0,0.0,0.0,0.0,0.0,0.0,0.3600775897502899,0.0,real1,0
1659096059189,6.6755453,-1.5642718,0.0,0.0,0.0,0.0,0.0,0.0,0.3600775897502899,0.0,real1,0
1659096059388,6.6755453,-1.5642718,0.0,0.0,0.0,0.0,0.0,0.0,0.3600775897502899,0.0,real1,0
1659096059588,6.6755327,-1.5642708,0.0,0.0,0.0,0.0,0.0,0.0,0.457678884267807,0.0,real1,0
1659096059788,6.6755327,-1.5642708,0.0,0.0,0.0,0.0,0.0,0.0,0.457678884267807,0.0,real1,0
1659096059989,6.6755327,-1.5642708,0.0,0.0,-0.2656092643737793,0.0,0.0,0.0,0.457678884267807,0.0,real1,0
1659096060190,6.6755327,-1.5642708,0.0,0.0,0.0,0.0,0.0,0.0,0.457678884267807,0.0,real1,0
1659096060389,6.6755327,-1.5642708,0.0,0.0,-0.21767044067382812,0.0,0.0,0.0,0.457678884267807,0.0,real1,0
1659096060588,6.6755327,-1.5642708,0.0,0.0,0.2520327568054199,0.0,0.0,0.0,0.457678884267807,0.0,real1,0
1659096060788,6.6755327,-1.5642708,0.0,0.0,0.28632593154907227,0.0,0.0,0.0,0.457678884267807,0.0,real1,0
1659096060988,6.6755239,-1.5642652,0.0,0.0,0.0,0.0,0.0,0.0,0.5061767101287842,0.0,real1,0
1659096061190,6.6755239,-1.5642652,0.0,0.0,0.0,0.0,0.0,0.0,0.5061767101287842,0.0,real1,0
1659096061389,6.6754866,-1.5642676,0.0,0.0,0.3147115707397461,0.0,0.0,0.0,0.13926461338996887,0.0,real1,0
1659096061588,6.6754866,-1.5642676,0.0,0.0,0.3658022880554199,0.0,0.0,0.0,0.13926461338996887,0.0,real1,0
1659096061788,6.6754866,-1.5642676,0.0,0.0,0.0,0.0,0.0,0.0,0.13926461338996887,0.0,real1,0
1659096061988,6.6754866,-1.5642676,0.0,0.0,0.0,0.0,0.0,0.0,0.13926461338996887,0.0,real1,0
1659096062189,6.6754866,-1.5642676,0.0,0.0,0.0,0.0,0.0,0.0,0.13926461338996887,0.0,real1,0
1659096062388,6.6754866,-1.5642676,0.0,0.0,0.0,0.0,0.0,0.0,0.13926461338996887,0.0,real1,0
1659096062588,6.6754866,-1.5642676,0.0,0.0,-0.2708139419555664,0.0,0.0,0.0,0.13926461338996887,0.0,real1,0
1659096062791,6.6754866,-1.5642676,0.0,0.0,0.0,0.0,0.0,0.0,0.13926461338996887,0.0,real1,0
1659096062988,6.6754866,-1.5642676,0.0,0.21212244033813477,0.0,0.0,0.0,0.0,0.13926461338996887,0.0,real1,0
1659096063188,6.6754876,-1.5642699,0.0,0.2037196159362793,-0.3517465591430664,0.0,0.0,0.0,0.09958357363939285,0.0,real1,0
1659096063388,6.6754876,-1.5642699,0.0,0.34543657302856445,0.0,0.0,0.0,0.0,0.09958357363939285,0.0,real1,0
1659096063588,6.6754876,-1.5642699,0.0,0.0,0.0,0.0,0.0,0.0,0.09958357363939285,0.0,real1,0
1659096063790,6.6754876,-1.5642699,0.0,-0.3797769546508789,0.0,0.0,0.0,0.0,0.09958357363939285,0.0,real1,0
1659096063988,6.6754904,-1.5642678,0.0,0.0,0.46957921981811523,0.0,0.0,0.0,0.04739318788051605,0.0,real1,0
1659096064188,6.6754904,-1.5642678,0.0,0.0,0.0,0.0,0.0,0.0,0.04739318788051605,0.0,real1,0
1659096064388,6.6754904,-1.5642678,0.0,0.0,0.0,0.0,0.0,0.0,0.04739318788051605,0.0,real1,0
1659096064588,6.6754904,-1.5642678,0.0,0.0,0.24882173538208008,0.0,0.0,0.0,0.04739318788051605,0.0,real1,0
1659096064789,6.6754916,-1.5642671,0.0,-0.6024332046508789,-0.4789581298828125,0.0,0.0,0.0,0.02134045585989952,0.0,real1,0
1659096064988,6.6754916,-1.5642671,0.0,-0.5984821319580078,0.0,0.0,0.0,0.0,0.02134045585989952,0.0,real1,0
1659096065189,6.6754916,-1.5642671,0.0,-0.24439191818237305,0.0,0.0,0.0,0.0,0.02134045585989952,0.0,real1,0
1659096065388,6.6754926,-1.5642667,0.0,0.0,0.0,0.0,0.0,0.0,0.012104504741728306,0.0,real1,0
1659096065589,6.6754926,-1.5642667,0.0,0.0,0.21217632293701172,0.0,0.0,0.0,0.012104504741728306,0.0,real1,0
1659096065788,6.6754926,-1.5642667,0.0,0.0,0.0,0.0,0.0,0.0,0.012104504741728306,0.0,real1,0
1659096065988,6.6754926,-1.5642667,0.0,0.0,0.0,0.0,0.0,0.0,0.012104504741728306,0.0,real1,0
1659096066189,6.6754943,-1.564264,0.0,0.0,0.0,0.0,0.0,0.0,0.0532851442694664,0.0,real1,0
1659096066389,6.6754943,-1.564264,0.0,-0.2664198875427246,0.0,0.0,0.0,0.0,0.0532851442694664,0.0,real1,0
1659096066588,6.6754943,-1.564264,0.0,0.0,0.0,0.0,0.0,0.0,0.0532851442694664,0.0,real1,0
1659096066788,6.6754941,-1.564265,0.0,0.0,0.0,0.0,0.0,0.0,0.034595590084791183,0.0,real1,0
1659096066988,6.6754941,-1.564265,0.0,0.24308395385742188,0.0,0.0,0.0,0.0,0.034595590084791183,0.0,real1,0
1659096067189,6.6754941,-1.564265,0.0,0.0,0.0,0.0,0.0,0.0,0.034595590084791183,0.0,real1,0
1659096067388,6.6754941,-1.564265,0.0,0.0,-0.286618709564209,0.0,0.0,0.0,0.034595590084791183,0.0,real1,0
1659096067588,6.675494,-1.5642659,0.0,0.0,0.0,0.0,0.0,0.0,0.01832340471446514,0.0,real1,0
1659096067788,6.675494,-1.5642659,0.0,0.0,0.23269367218017578,0.0,0.0,0.0,0.01832340471446514,0.0,real1,0
1659096067988,6.675494,-1.5642659,0.0,0.0,0.0,0.0,0.0,0.0,0.01832340471446514,0.0,real1,0
1659096068188,6.675494,-1.5642643,0.0,0.0,0.0,0.0,0.0,0.0,0.03881648927927017,0.0,real1,0
1659096068389,6.675494,-1.5642643,0.0,0.0,0.0,0.0,0.0,0.0,0.03881648927927017,0.0,real1,0
1659096068588,6.675494,-1.5642643,0.0,0.0,0.0,0.0,0.0,0.0,0.03881648927927017,0.0,real1,0
1659096068788,6.675494,-1.5642643,0.0,0.0,0.33367109298706055,0.0,0.0,0.0,0.03881648927927017,0.0,real1,0
1659096068989,6.6754962,-1.5642579,0.0,0.0,0.0,0.0,0.0,0.0,0.12433116137981415,0.0,real1,0
1659096069189,6.6754962,-1.5642579,0.0,0.0,0.3332080841064453,0.0,0.0,0.0,0.12433116137981415,0.0,real1,0
1659096069388,6.6754962,-1.5642579,0.0,0.0,0.0,0.0,0.0,0.0,0.12433116137981415,0.0,real1,0
1659096069590,6.6753807,-1.5642925,0.0,0.0,0.33231019973754883,0.0,0.0,0.0,1.550074577331543,0.0,real1,0
1659096069859,6.6753807,-1.5642925,0.0,0.0,0.28885698318481445,0.0,0.0,0.0,1.550074577331543,0.0,real1,0
1659096069988,6.6753807,-1.5642925,0.0,0.0,0.0,0.0,0.0,0.0,1.550074577331543,0.0,real1,0
1659096070189,6.6754066,-1.5642666,0.0,0.0,0.0,0.0,0.0,0.0,1.1339305639266968,0.0,real1,0
1659096070388,6.6754066,-1.5642666,0.0,0.0,0.0,0.0,0.0,0.0,1.1339305639266968,0.0,real1,0
1659096070588,6.6754066,-1.5642666,0.0,0.0,0.0,0.0,0.0,0.0,1.1339305639266968,0.0,real1,0
1659096070788,6.6754066,-1.5642666,0.0,0.0,0.0,0.0,0.0,0.0,1.1339305639266968,0.0,real1,0
1659096070988,6.6754066,-1.5642666,0.0,0.0,0.25473451614379883,0.0,0.0,0.0,1.1339305639266968,0.0,real1,0
1659096071188,6.6754285,-1.5642545,0.0,0.2243194580078125,0.0,0.0,0.0,0.0,0.6913251280784607,0.0,real1,0
1659096071388,6.6754285,-1.5642545,0.0,0.0,0.0,0.0,0.0,0.0,0.6913251280784607,0.0,real1,0
1659096071588,6.6754285,-1.5642545,0.0,0.0,0.0,0.0,0.0,0.0,0.6913251280784607,0.0,real1,0
1659096071789,6.6754463,-1.5642273,0.0,0.0,0.0,0.0,0.0,0.0,0.6272013783454895,0.0,real1,0
1659096071988,6.6754463,-1.5642273,0.0,0.0,0.0,0.0,0.0,0.0,0.6272013783454895,0.0,real1,0
1659096072189,6.6754463,-1.5642273,0.0,0.0,0.0,0.0,0.0,0.0,0.6272013783454895,0.0,real1,0
1659096072388,6.6754463,-1.5642273,0.0,0.3727540969848633,0.2891545295715332,0.0,0.0,0.0,0.6272013783454895,0.0,real1,0
1659096072588,6.6754483,-1.5642287,0.0,0.0,0.0,0.0,0.0,0.0,0.5839182138442993,0.0,real1,0
1659096072789,6.6754483,-1.5642287,0.0,0.0,0.0,0.0,0.0,0.0,0.5839182138442993,0.0,real1,0
1659096072988,6.6754483,-1.5642287,0.0,0.0,0.0,0.0,0.0,0.0,0.5839182138442993,0.0,real1,0
1659096073188,6.6754483,-1.5642287,0.0,0.0,0.0,0.0,0.0,0.0,0.5839182138442993,0.0,real1,0
1659096073388,6.6754553,-1.564224,0.0,0.0,0.0,0.0,0.0,0.0,0.4918346405029297,0.0,real1,0
1659096073588,6.6754553,-1.564224,0.0,0.0,0.20864534378051758,0.0,0.0,0.0,0.4918346405029297,0.0,real1,0
1659096073788,6.6754553,-1.564224,0.0,-0.24402856826782227,0.0,0.0,0.0,0.0,0.4918346405029297,0.0,real1,0
1659096073989,6.6754553,-1.564224,0.0,-0.2130298614501953,0.0,0.0,0.0,0.0,0.4918346405029297,0.0,real1,0
1659096074188,6.6754596,-1.5642219,0.0,0.0,0.6613020896911621,0.0,0.0,0.0,0.4562402367591858,0.0,real1,0
1659096074388,6.6754596,-1.5642219,0.0,0.0,-0.28103017807006836,0.0,0.0,0.0,0.4562402367591858,0.0,real1,0
1659096074588,6.6754596,-1.5642219,0.0,-0.3653736114501953,-0.4490165710449219,0.0,0.0,0.0,0.4562402367591858,0.0,real1,0
1659096074788,6.6754648,-1.5642244,0.0,0.0,0.0,0.0,0.0,0.0,0.392981618642807,0.0,real1,0
1659096074988,6.6754648,-1.5642244,-0.3692774176597595,0.0,0.35256338119506836,0.0,0.0,0.0,0.392981618642807,0.0,real1,0
1659096075192,6.6754648,-1.5642244,0.0,0.0,0.0,0.0,0.0,0.0,0.392981618642807,0.0,real1,0
1659096075427,6.6754648,-1.5642244,0.0,0.21089601516723633,0.0,0.0,0.0,0.0,0.392981618642807,0.0,real1,0
1659096075589,6.6754683,-1.5642257,0.0,0.0,0.0,0.0,0.0,0.0,0.32031986117362976,0.0,real1,0
1659096075791,6.6754683,-1.5642257,-0.41746997833251953,0.21013355255126953,0.5277085304260254,0.0,0.0,0.0,0.32031986117362976,0.0,real1,0
1659096075989,6.6754683,-1.5642257,0.0,-0.27785730361938477,-0.625147819519043,0.0,0.0,0.0,0.32031986117362976,0.0,real1,0
1659096076189,6.6754707,-1.5642288,0.0,0.3488283157348633,1.1920537948608398,0.0,0.0,0.0,0.27649611234664917,0.0,real1,0
1659096076389,6.6754707,-1.5642288,0.0,0.3914976119995117,0.22325944900512695,0.0,0.0,0.0,0.27649611234664917,0.0,real1,0
1659096076591,6.6754707,-1.5642288,0.21326294541358948,0.26476287841796875,0.5339441299438477,0.0,0.0,0.0,0.27649611234664917,0.0,real1,0
1659096076790,6.6754707,-1.5642288,0.2981172502040863,0.20070934295654297,0.3211550712585449,0.0,0.0,0.0,0.27649611234664917,0.0,real1,0
1659096076991,6.6754817,-1.5642267,0.0,0.0,0.0,0.0,0.0,0.0,0.31119829416275024,0.0,real1,0
1659096077191,6.6754817,-1.5642267,0.0,0.0,0.0,0.0,0.0,0.0,0.31119829416275024,0.0,real1,0
1659096077393,6.6754817,-1.5642267,-0.20198804140090942,0.0,0.0,0.0,0.0,0.0,0.31119829416275024,0.0,real1,0
1659096077590,6.6754817,-1.5642267,0.0,0.0,0.2574324607849121,0.0,0.0,0.0,0.31119829416275024,0.0,real1,0
1659096077791,6.6754991,-1.5642264,0.0,0.0,0.0,0.0,0.0,0.0,0.4729272723197937,0.0,real1,0
1659096077990,6.6754991,-1.5642264,0.0,0.0,-0.5200042724609375,0.0,0.0,0.0,0.4729272723197937,0.0,real1,0
1659096078191,6.6754991,-1.5642264,0.400973379611969,0.0,0.0,0.0,0.0,0.0,0.4729272723197937,0.0,real1,0
1659096078390,6.6754991,-1.5642264,0.0,0.0,0.21004152297973633,0.0,0.0,0.0,0.4729272723197937,0.0,real1,0
1659096078591,6.6755022,-1.5642344,0.0,0.0,0.0,0.0,0.0,0.0,0.39235037565231323,0.0,real1,0
1659096078790,6.6755022,-1.5642344,0.0,0.0,0.0,0.0,0.0,0.0,0.39235037565231323,0.0,real1,0
1659096078992,6.6755022,-1.5642344,0.0,0.0,0.0,0.0,0.0,0.0,0.39235037565231323,0.0,real1,0
1659096079192,6.6755052,-1.5642323,0.0,-0.2969694137573242,0.0,0.0,0.0,0.0,0.40770283341407776,0.0,real1,0
1659096079389,6.6755052,-1.5642323,0.0,0.0,0.3897666931152344,0.0,0.0,0.0,0.40770283341407776,0.0,real1,0
1659096079588,6.6755052,-1.5642323,0.0,0.0,0.0,0.0,0.0,0.0,0.40770283341407776,0.0,real1,0
1659096079794,6.6755052,-1.5642323,0.0,0.728090763092041,-0.22238588333129883,0.0,0.0,0.0,0.40770283341407776,0.0,real1,0
1659096079989,6.6755052,-1.5642323,0.0,0.0,0.35959863662719727,0.0,0.0,0.0,0.40770283341407776,0.0,real1,0
1659096080192,6.6755052,-1.5642323,0.0,0.0,0.0,0.0,0.0,0.0,0.40770283341407776,0.0,real1,0
1659096080392,6.6755168,-1.5642278,0.0,0.0,0.0,0.0,0.0,0.0,0.5436111092567444,0.0,real1,0
1659096080595,6.6755168,-1.5642278,0.0,0.0,0.0,0.0,0.0,0.0,0.5436111092567444,0.0,real1,0
1659096080803,6.6755168,-1.5642278,0.0,0.0,0.0,0.0,0.0,0.0,0.5436111092567444,0.0,real1,0
1659096081010,6.675517,-1.5642353,0.0,0.0,0.0,0.0,0.0,0.0,0.4420853555202484,0.0,real1,0
1659096081192,6.675517,-1.5642353,0.0,0.0,0.0,0.0,0.0,0.0,0.4420853555202484,0.0,real1,0
1659096081393,6.675517,-1.5642353,0.0,0.0,0.0,0.0,0.0,0.0,0.4420853555202484,0.0,real1,0
1659096081590,6.675517,-1.5642353,0.0,0.0,0.0,0.0,0.0,0.0,0.4420853555202484,0.0,real1,0
1659096081796,6.675515,-1.5642389,0.0,0.0,0.0,0.0,0.0,0.0,0.3745320439338684,0.0,real1,0
1659096081990,6.675515,-1.5642389,0.0,0.0,0.20249366760253906,0.0,0.0,0.0,0.3745320439338684,0.0,real1,0
1659096082190,6.675515,-1.5642389,0.0,0.0,0.0,0.0,0.0,0.0,0.3745320439338684,0.0,real1,0
1659096082391,6.675515,-1.5642389,0.0,0.0,0.0,0.0,0.0,0.0,0.3745320439338684,0.0,real1,0
1659096082598,6.6755115,-1.5642413,0.0,0.0,0.0,0.0,0.0,0.0,0.31394198536872864,0.0,real1,0
1659096082791,6.6755115,-1.5642413,0.0,0.0,0.0,0.0,0.0,0.0,0.31394198536872864,0.0,real1,0
1659096082993,6.6755115,-1.5642413,0.0,0.0,0.0,0.0,0.0,0.0,0.31394198536872864,0.0,real1,0
1659096083194,6.6755115,-1.5642413,0.0,0.0,0.0,0.0,0.0,0.0,0.31394198536872864,0.0,real1,0
1659096083394,6.6755147,-1.564243,0.0,0.0,0.3154759407043457,0.0,0.0,0.0,0.3073500990867615,0.0,real1,0
1659096083594,6.6755147,-1.564243,0.0,0.0,0.0,0.0,0.0,0.0,0.3073500990867615,0.0,real1,0
1659096083794,6.6755147,-1.564243,0.0,0.0,0.0,0.0,0.0,0.0,0.3073500990867615,0.0,real1,0
1659096083994,6.6755147,-1.564243,0.0,0.0,0.0,0.0,0.0,0.0,0.3073500990867615,0.0,real1,0
1659096084194,6.675513,-1.5642449,0.0,0.0,0.0,0.0,0.0,0.0,0.26851433515548706,0.0,real1,0
1659096084392,6.675513,-1.5642449,0.0,0.0,0.0,0.0,0.0,0.0,0.26851433515548706,0.0,real1,0
1659096084594,6.675513,-1.5642449,0.0,0.0,0.0,0.0,0.0,0.0,0.26851433515548706,0.0,real1,0
1659096084792,6.675513,-1.5642449,0.0,0.0,0.0,0.0,0.0,0.0,0.26851433515548706,0.0,real1,0
1659096084991,6.6755139,-1.564245,0.0,0.0,0.0,0.0,0.0,0.0,0.2707967162132263,0.0,real1,0
1659096085196,6.6755139,-1.564245,0.0,0.0,0.0,0.0,0.0,0.0,0.2707967162132263,0.0,real1,0
1659096085393,6.6755139,-1.564245,0.0,0.0,0.0,0.0,0.0,0.0,0.2707967162132263,0.0,real1,0
1659096085593,6.6755192,-1.5642488,0.0,0.0,0.0,0.0,0.0,0.0,0.3150646686553955,0.0,real1,0
1659096085790,6.6755192,-1.5642488,0.0,0.0,0.0,0.0,0.0,0.0,0.3150646686553955,0.0,real1,0
1659096085992,6.6755192,-1.5642488,0.0,0.0,0.0,0.0,0.0,0.0,0.3150646686553955,0.0,real1,0
1659096086189,6.6755156,-1.5642499,0.0,0.0,0.0,0.0,0.0,0.0,0.26856133341789246,0.0,real1,0
1659096086397,6.6755156,-1.5642499,0.0,0.0,0.0,0.0,0.0,0.0,0.26856133341789246,0.0,real1,0
1659096086588,6.6755156,-1.5642499,0.0,0.0,0.0,0.0,0.0,0.0,0.26856133341789246,0.0,real1,0
1659096086789,6.6755156,-1.5642499,0.0,0.0,0.0,0.0,0.0,0.0,0.26856133341789246,0.0,real1,0
1659096086989,6.6755136,-1.5642507,0.0,0.0,0.0,0.0,0.0,0.0,0.22433584928512573,0.0,real1,0
1659096087188,6.6755136,-1.5642507,0.0,0.0,0.0,0.0,0.0,0.0,0.22433584928512573,0.0,real1,0
1659096087389,6.6755136,-1.5642507,0.0,0.0,0.0,0.0,0.0,0.0,0.22433584928512573,0.0,real1,0
1659096087589,6.6755121,-1.5642519,0.0,0.0,0.0,0.0,0.0,0.0,0.17952395975589752,0.0,real1,0
1659096087789,6.6755121,-1.5642519,0.0,0.0,0.0,0.0,0.0,0.0,0.17952395975589752,0.0,real1,0
1659096087989,6.6755121,-1.5642519,0.0,0.0,0.0,0.0,0.0,0.0,0.17952395975589752,0.0,real1,0
1659096088189,6.6755121,-1.5642519,0.0,0.0,0.0,0.0,0.0,0.0,0.17952395975589752,0.0,real1,0
1659096088389,6.6755128,-1.5642513,0.0,0.0,0.0,0.0,0.0,0.0,0.1677408367395401,0.0,real1,0
1659096088589,6.6755128,-1.5642513,0.0,0.0,0.0,0.0,0.0,0.0,0.1677408367395401,0.0,real1,0
1659096088788,6.6755128,-1.5642513,0.0,0.0,0.0,0.0,0.0,0.0,0.1677408367395401,0.0,real1,0
1659096088988,6.6755108,-1.5642518,0.0,0.0,0.0,0.0,0.0,0.0,0.1327945441007614,0.0,real1,0
1659096089188,6.6755108,-1.5642518,0.0,0.0,0.0,0.0,0.0,0.0,0.1327945441007614,0.0,real1,0
1659096089388,6.6755108,-1.5642518,0.0,0.0,0.0,0.0,0.0,0.0,0.1327945441007614,0.0,real1,0
1659096089589,6.6755108,-1.5642518,0.0,0.0,0.0,0.0,0.0,0.0,0.1327945441007614,0.0,real1,0
1659096089789,6.6755089,-1.5642521,0.0,0.0,0.0,0.0,0.0,0.0,0.10798846930265427,0.0,real1,0
1659096089988,6.6755089,-1.5642521,0.0,0.0,0.0,0.0,0.0,0.0,0.10798846930265427,0.0,real1,0
1659096090188,6.6755089,-1.5642521,0.0,0.0,0.0,0.0,0.0,0.0,0.10798846930265427,0.0,real1,0
1659096090389,6.6755089,-1.5642521,0.0,0.27945661544799805,0.0,0.0,0.0,0.0,0.10798846930265427,0.0,real1,0
